msg_type,mass,time,ax,ay,az,ax_local,ay_local,az_local,pitch,roll,yaw,vx,vy,vz,vx_local,vy_local,vz_local,x,y,z,qw,qx,qy,qz,apogee,baro_altitude,altitude,baro_pressure,baro_temperature,air_density,drag_coefficient,p,i,d,pid,brake_target_deployment
138,0.5,0.0,-1.9457201957702637,2.952845573425293,-0.2505321800708771,3.216190814971924,1.069685697555542,1.0390191078186035,0.34328633546829224,-0.136705219745636,1.806812047958374,0.0,0.0,0.0,0.0,0.0,0.0,0.0,0.0,0.0,0.5992537140846252,-0.17549341917037964,0.05261277034878731,0.7793075442314148,0.0,-0.11679857969284058,0.0,1021.9871215820312,8.076189041137695,1.2675378322601318,0.38999998569488525,0.0,0.0,0.0,0.0,0.0,-5.31827082372871e-10
138,0.5,0.0,-1.806817650794983,2.8758387565612793,-0.2493486851453781,3.1038079261779785,0.9923239946365356,0.989285945892334,0.34277576208114624,-0.13842719793319702,1.7958927154541016,0.0,0.0,0.0,0.0,0.0,0.0,0.0,0.0,0.0,0.6033892631530762,-0.17552872002124786,0.05274317413568497,0.7760933041572571,0.0,0.0,0.0,1021.978515625,8.072683334350586,1.2675429582595825,0.38999998569488525,0.0,0.0,0.0,0.0,0.0,1.401298464324817e-45
138,0.5,0.0,-1.8657000064849854,3.048649549484253,-0.286711722612381,3.2760071754455566,1.0437560081481934,1.017566442489624,0.34198853373527527,-0.1400894969701767,1.7848182916641235,0.0,0.0,0.0,0.0,0.0,0.0,0.0,0.0,0.0,0.6075946688652039,-0.1754406839609146,0.05282554775476456,0.7728198170661926,0.0,0.11581792682409286,0.0,1021.9640502929688,8.075020790100098,1.2675144672393799,0.38999998569488525,0.0,0.0,0.0,0.0,0.0,1.401298464324817e-45
138,0.5,0.0,-1.8789751529693604,2.917821168899536,-0.2717151939868927,3.1415655612945557,1.120951771736145,0.9959319233894348,0.34142133593559265,-0.14143961668014526,1.7744051218032837,0.0,0.0,0.0,0.0,0.0,0.0,0.0,0.0,0.0,0.6115373373031616,-0.17536213994026184,0.0530400387942791,0.7697066068649292,0.0,0.0,0.0,1021.97265625,8.07735824584961,1.2675145864486694,0.38999998569488525,0.0,0.0,0.0,0.0,0.0,1.401298464324817e-45
138,0.5,0.0,-1.8168535232543945,2.960150957107544,-0.2565613090991974,3.1516811847686768,1.0837790966033936,1.0106407403945923,0.34096166491508484,-0.14284802973270416,1.7634038925170898,0.0,0.0,0.0,0.0,0.0,0.0,0.0,0.0,0.0,0.6156757473945618,-0.17532871663570404,0.05331835895776749,0.7663887739181519,0.0,-0.09324267506599426,0.0,1021.9928588867188,8.078526496887207,1.2675343751907349,0.38999998569488525,0.0,0.0,0.0,0.0,0.0,1.401298464324817e-45
138,0.5,0.0,-1.8534691333770752,3.0278234481811523,-0.33271124958992004,3.234815835952759,1.1474391222000122,0.9658636450767517,0.33985814452171326,-0.144259974360466,1.752930998802185,0.0,0.0,0.0,0.0,0.0,0.0,0.0,0.0,0.0,0.6196464896202087,-0.17507204413414001,0.05334470048546791,0.7632390260696411,0.0,0.0,0.0,1021.9957885742188,8.076189041137695,1.2675485610961914,0.38999998569488525,0.0,0.0,0.0,0.0,0.0,1.401298464324817e-45
138,0.5,0.0,-1.7965724468231201,3.0314700603485107,-0.2067585438489914,3.1747095584869385,1.1100728511810303,1.0719026327133179,0.3387903571128845,-0.14561520516872406,1.7419909238815308,0.0,0.0,0.0,0.0,0.0,0.0,0.0,0.0,0.0,0.6237807273864746,-0.1748030185699463,0.05344361066818237,0.7599188685417175,0.0,-0.27972546219825745,0.0,1022.01025390625,8.078526496887207,1.2675559520721436,0.38999998569488525,0.0,0.0,0.0,0.0,0.0,1.401298464324817e-45
138,0.5,0.0,-1.748551845550537,3.039193630218506,-0.19953159987926483,3.160036325454712,1.0955225229263306,1.0713249444961548,0.33797866106033325,-0.1471232771873474,1.7311843633651733,0.0,0.0,0.0,0.0,0.0,0.0,0.0,0.0,0.0,0.6278125047683716,-0.1746845543384552,0.053554438054561615,0.7566109895706177,0.0,0.0,0.0,1021.9871215820312,8.07735824584961,1.2675325870513916,0.38999998569488525,0.0,0.0,0.0,0.0,0.0,1.401298464324817e-45
138,0.5,0.0,-1.8222395181655884,3.080946922302246,-0.1597328633069992,3.18412709236145,1.1889829635620117,1.1339037418365479,0.33670133352279663,-0.1486433446407318,1.7200597524642944,0.0,0.0,0.0,0.0,0.0,0.0,0.0,0.0,0.0,0.6319836974143982,-0.17439362406730652,0.05353719741106033,0.7531989216804504,0.0,0.3724915385246277,0.0,1021.9639282226562,8.080863952636719,1.2674880027770996,0.38999998569488525,0.0,0.0,0.0,0.0,0.0,1.401298464324817e-45
138,0.5,0.0,-1.7475849390029907,3.109103202819824,-0.19991402328014374,3.201535224914551,1.1511731147766113,1.0887106657028198,0.33547812700271606,-0.14994002878665924,1.7095119953155518,0.0,0.0,0.0,0.0,0.0,0.0,0.0,0.0,0.0,0.6359351277351379,-0.1740725338459015,0.053569529205560684,0.749937891960144,0.0,0.0,0.0,1021.9986572265625,8.07735824584961,1.2675468921661377,0.38999998569488525,0.0,0.0,0.0,0.0,0.0,1.401298464324817e-45
138,0.5,0.0,-1.6367430686950684,3.0366718769073486,-0.2159758061170578,3.112523078918457,1.0954104661941528,1.0290861129760742,0.3343910872936249,-0.15084998309612274,1.6982028484344482,0.0,0.0,0.0,0.0,0.0,0.0,0.0,0.0,0.0,0.6401764154434204,-0.17366144061088562,0.05385523661971092,0.7463958859443665,0.0,0.16244126856327057,0.0,1021.9727172851562,8.075020790100098,1.2675251960754395,0.38999998569488525,0.0,0.0,0.0,0.0,0.0,1.401298464324817e-45
138,0.5,0.0,-1.7151834964752197,3.0431220531463623,-0.23453716933727264,3.121680974960327,1.2077043056488037,1.0265456438064575,0.3330530524253845,-0.1520693600177765,1.6874672174453735,0.0,0.0,0.0,0.0,0.0,0.0,0.0,0.0,0.0,0.6441789269447327,-0.17327669262886047,0.053890109062194824,0.7430315017700195,0.0,0.0,0.0,1021.9784545898438,8.076189041137695,1.2675271034240723,0.38999998569488525,0.0,0.0,0.0,0.0,0.0,1.401298464324817e-45
138,0.5,0.0,-1.6771764755249023,3.017468214035034,-0.23449616134166718,3.0800588130950928,1.211315631866455,1.0093424320220947,0.33165809512138367,-0.15317490696907043,1.675966501235962,0.0,0.0,0.0,0.0,0.0,0.0,0.0,0.0,0.0,0.6484614014625549,-0.17281845211982727,0.05401155352592468,0.7393955588340759,0.0,-0.09324344247579575,0.0,1021.989990234375,8.078526496887207,1.2675307989120483,0.38999998569488525,0.0,0.0,0.0,0.0,0.0,1.401298464324817e-45
138,0.5,0.0,-1.5619466304779053,3.0224673748016357,-0.1602793186903,3.0375566482543945,1.1214512586593628,1.0564439296722412,0.33016887307167053,-0.15425769984722137,1.6650789976119995,0.0,0.0,0.0,0.0,0.0,0.0,0.0,0.0,0.0,0.652507483959198,-0.17233984172344208,0.05405331403017044,0.7359365820884705,0.0,0.0,0.0,1021.9813232421875,8.078526496887207,1.2675200700759888,0.38999998569488525,0.0,0.0,0.0,0.0,0.0,1.401298464324817e-45
138,0.5,0.0,-1.667220115661621,3.033705234527588,-0.2310991734266281,3.0664079189300537,1.2698673009872437,1.0103340148925781,0.32863396406173706,-0.15548984706401825,1.6534637212753296,0.0,0.0,0.0,0.0,0.0,0.0,0.0,0.0,0.0,0.6567927002906799,-0.1718788892030716,0.054083820432424545,0.7322209477424622,0.0,-0.07066850364208221,0.0,1021.9842529296875,8.076189041137695,1.2675342559814453,0.38999998569488525,0.0,0.0,0.0,0.0,0.0,1.401298464324817e-45
138,0.5,0.0,-1.5934232473373413,3.0060160160064697,-0.2390947788953781,3.0239458084106445,1.2370853424072266,0.9785040020942688,0.3271505832672119,-0.15653418004512787,1.642324686050415,0.0,0.0,0.0,0.0,0.0,0.0,0.0,0.0,0.0,0.6608949899673462,-0.17139257490634918,0.05415583774447441,0.7286295890808105,0.0,0.0,0.0,1022.00439453125,8.082032203674316,1.2675329446792603,0.38999998569488525,0.0,0.0,0.0,0.0,0.0,1.401298464324817e-45
138,0.5,0.0,-1.5717986822128296,2.9911046028137207,-0.199982687830925,2.982032060623169,1.2473515272140503,1.0043200254440308,0.32572704553604126,-0.1575787216424942,1.6308281421661377,0.0,0.0,0.0,0.0,0.0,0.0,0.0,0.0,0.0,0.6651023626327515,-0.17092229425907135,0.05427497625350952,0.72489333152771,0.0,0.0,0.0,1021.9986572265625,8.080863952636719,1.2675310373306274,0.38999998569488525,0.0,0.0,0.0,0.0,0.0,1.401298464324817e-45
138,0.5,0.0,-1.460275411605835,3.0191681385040283,-0.3041429817676544,3.02321720123291,1.184726595878601,0.8925620913505554,0.3239765167236328,-0.15848441421985626,1.619759440422058,0.0,0.0,0.0,0.0,0.0,0.0,0.0,0.0,0.0,0.6691733002662659,-0.17030645906925201,0.05429161712527275,0.7212812304496765,0.0,0.0,0.0,1021.989990234375,8.079694747924805,1.267525553703308,0.38999998569488525,0.0,0.0,0.0,0.0,0.0,1.401298464324817e-45
138,0.5,0.0,-1.5483628511428833,3.1197900772094727,-0.18523792922496796,3.0705182552337646,1.2813279628753662,1.046295166015625,0.3221125602722168,-0.15952564775943756,1.6079922914505005,0.0,0.0,0.0,0.0,0.0,0.0,0.0,0.0,0.0,0.6734732389450073,-0.16968262195587158,0.054274458438158035,0.7174170017242432,0.0,0.022575045004487038,0.0,1021.9784545898438,8.076189041137695,1.2675271034240723,0.38999998569488525,0.0,0.0,0.0,0.0,0.0,1.401298464324817e-45
138,0.5,0.0,-1.4842593669891357,3.0500054359436035,-0.1438017338514328,2.975511312484741,1.2534794807434082,1.049364686012268,0.320385217666626,-0.16030994057655334,1.5966483354568481,0.0,0.0,0.0,0.0,0.0,0.0,0.0,0.0,0.0,0.6776101589202881,-0.16903680562973022,0.05435511842370033,0.7136582732200623,0.0,0.0,0.0,1021.9871215820312,8.078526496887207,1.2675272226333618,0.38999998569488525,0.0,0.0,0.0,0.0,0.0,1.401298464324817e-45
138,0.5,0.0,-1.3784925937652588,3.0963003635406494,-0.20224766433238983,3.021806001663208,1.1922746896743774,0.9875180125236511,0.3184153139591217,-0.16135729849338531,1.5846548080444336,0.0,0.0,0.0,0.0,0.0,0.0,0.0,0.0,0.0,0.6819545030593872,-0.1683836430311203,0.05430664122104645,0.709666907787323,0.0,0.11680040508508682,0.0,1021.984130859375,8.084369659423828,1.267497181892395,0.38999998569488525,0.0,0.0,0.0,0.0,0.0,1.401298464324817e-45
138,0.5,0.0,-1.5032474994659424,3.061997175216675,-0.23643402755260468,2.987577199935913,1.357557773590088,0.9605733752250671,0.3162788152694702,-0.16204452514648438,1.57356595993042,0.0,0.0,0.0,0.0,0.0,0.0,0.0,0.0,0.0,0.6860002279281616,-0.16758079826831818,0.0542447492480278,0.7059528231620789,0.0,0.0,0.0,1021.9697875976562,8.078526496887207,1.2675057649612427,0.38999998569488525,0.0,0.0,0.0,0.0,0.0,1.401298464324817e-45
138,0.5,0.0,-1.3764050006866455,3.0632638931274414,-0.18525032699108124,2.9587032794952393,1.261820912361145,0.982896625995636,0.3139478862285614,-0.16243834793567657,1.5617101192474365,0.0,0.0,0.0,0.0,0.0,0.0,0.0,0.0,0.0,0.690335214138031,-0.1665952205657959,0.05427365377545357,0.7019467353820801,0.0,-0.1629314422607422,0.0,1021.9899291992188,8.084369659423828,1.2675044536590576,0.38999998569488525,0.0,0.0,0.0,0.0,0.0,1.401298464324817e-45
138,0.5,0.0,-1.2958619594573975,3.0426018238067627,-0.1811542958021164,2.925765037536621,1.2170377969741821,0.9633464813232422,0.31195297837257385,-0.16292698681354523,1.5505502223968506,0.0,0.0,0.0,0.0,0.0,0.0,0.0,0.0,0.0,0.6943674683570862,-0.16578109562397003,0.05432160571217537,0.6981484293937683,0.0,0.0,0.0,1021.989990234375,8.078526496887207,1.2675307989120483,0.38999998569488525,0.0,0.0,0.0,0.0,0.0,1.401298464324817e-45
138,0.5,0.0,-1.3292101621627808,3.113617181777954,-0.07308963686227798,2.9456541538238525,1.2686164379119873,1.0864145755767822,0.3094661235809326,-0.1637205183506012,1.5386039018630981,0.0,0.0,0.0,0.0,0.0,0.0,0.0,0.0,0.0,0.6986671090126038,-0.16489042341709137,0.05414498597383499,0.6940715909004211,0.0,0.09373467415571213,0.0,1021.9725341796875,8.084369659423828,1.267482876777649,0.38999998569488525,0.0,0.0,0.0,0.0,0.0,1.401298464324817e-45
138,0.5,0.0,-1.2424812316894531,3.0356807708740234,-0.18740849196910858,2.8955881595611572,1.237761378288269,0.9367867112159729,0.3071770966053009,-0.1641472429037094,1.5269941091537476,0.0,0.0,0.0,0.0,0.0,0.0,0.0,0.0,0.0,0.7028397917747498,-0.16395431756973267,0.05412983149290085,0.6900699734687805,0.0,0.0,0.0,1021.97265625,8.079694747924805,1.267504096031189,0.38999998569488525,0.0,0.0,0.0,0.0,0.0,1.401298464324817e-45
138,0.5,0.0,-1.3089991807937622,2.985924243927002,-0.14453987777233124,2.817401647567749,1.333491325378418,0.9664287567138672,0.3049532175064087,-0.1642926037311554,1.514954686164856,0.0,0.0,0.0,0.0,0.0,0.0,0.0,0.0,0.0,0.7071539163589478,-0.16293445229530334,0.054260604083538055,0.6858812570571899,0.0,0.023065807297825813,0.0,1021.987060546875,8.079694747924805,1.2675219774246216,0.38999998569488525,0.0,0.0,0.0,0.0,0.0,1.401298464324817e-45
138,0.5,0.0,-1.2191665172576904,3.041736364364624,-0.16468434035778046,2.867523670196533,1.2833906412124634,0.9464043378829956,0.30263444781303406,-0.16496680676937103,1.5033485889434814,0.0,0.0,0.0,0.0,0.0,0.0,0.0,0.0,0.0,0.7112594842910767,-0.16208717226982117,0.05413110926747322,0.6818349957466125,0.0,0.0,0.0,1021.9783935546875,8.079694747924805,1.2675111293792725,0.38999998569488525,0.0,0.0,0.0,0.0,0.0,1.401298464324817e-45
138,0.5,0.0,-1.228158950805664,3.021392822265625,-0.08413413912057877,2.808500051498413,1.3164467811584473,1.0116230249404907,0.30016013979911804,-0.1653095930814743,1.4910370111465454,0.0,0.0,0.0,0.0,0.0,0.0,0.0,0.0,0.0,0.7156199812889099,-0.16105788946151733,0.0541057214140892,0.6775045990943909,0.0,-0.25617310404777527,0.0,1021.9899291992188,8.083200454711914,1.2675096988677979,0.38999998569488525,0.0,0.0,0.0,0.0,0.0,1.401298464324817e-45
138,0.5,0.0,-1.1772342920303345,2.9389939308166504,-0.14225010573863983,2.736595630645752,1.3073019981384277,0.9195842742919922,0.29784536361694336,-0.1657552272081375,1.4791996479034424,0.0,0.0,0.0,0.0,0.0,0.0,0.0,0.0,0.0,0.7197723388671875,-0.16013698279857635,0.0540558323264122,0.6733152270317078,0.0,0.0,0.0,1021.984130859375,8.083200454711914,1.2675025463104248,0.38999998569488525,0.0,0.0,0.0,0.0,0.0,1.401298464324817e-45
138,0.5,0.0,-1.1725709438323975,2.930499315261841,-0.1397600620985031,2.7123606204986572,1.3388314247131348,0.9125479459762573,0.2952568829059601,-0.16592775285243988,1.4665381908416748,0.0,0.0,0.0,0.0,0.0,0.0,0.0,0.0,0.0,0.7242192029953003,-0.15901200473308563,0.05405241623520851,0.6687986254692078,0.0,-0.25617310404777527,0.0,1021.987060546875,8.082032203674316,1.2675113677978516,0.38999998569488525,0.0,0.0,0.0,0.0,0.0,1.401298464324817e-45
138,0.5,0.0,-1.048895001411438,2.9342570304870605,-0.05593971163034439,2.689937114715576,1.2383406162261963,0.9714712500572205,0.29286372661590576,-0.16658367216587067,1.4544966220855713,0.0,0.0,0.0,0.0,0.0,0.0,0.0,0.0,0.0,0.7283766269683838,-0.15814919769763947,0.05390007421374321,0.6644866466522217,0.0,0.0,0.0,1021.984130859375,8.082032203674316,1.267507791519165,0.38999998569488525,0.0,0.0,0.0,0.0,0.0,1.401298464324817e-45
138,0.5,0.0,-1.172804594039917,2.9793496131896973,-0.19466499984264374,2.742439031600952,1.422254204750061,0.8636736273765564,0.2900419533252716,-0.1669229418039322,1.4419151544570923,0.0,0.0,0.0,0.0,0.0,0.0,0.0,0.0,0.0,0.7327456474304199,-0.15702584385871887,0.053725723177194595,0.6599481701850891,0.0,0.023556767031550407,0.0,1021.9898681640625,8.085537910461426,1.2674990892410278,0.38999998569488525,0.0,0.0,0.0,0.0,0.0,1.401298464324817e-45
138,0.5,0.0,-1.0087679624557495,2.9180705547332764,-0.1007862463593483,2.663694381713867,1.2753965854644775,0.9060015678405762,0.2870056927204132,-0.1671910583972931,1.4299591779708862,0.0,0.0,0.0,0.0,0.0,0.0,0.0,0.0,0.0,0.736903190612793,-0.15583287179470062,0.0534331351518631,0.6556112766265869,0.0,0.0,0.0,1021.984130859375,8.085537910461426,1.2674919366836548,0.38999998569488525,0.0,0.0,0.0,0.0,0.0,1.401298464324817e-45
138,0.5,0.0,-1.0247275829315186,2.9334566593170166,-0.11627963930368423,2.6651058197021484,1.330759882926941,0.8915615677833557,0.2840992510318756,-0.16759906709194183,1.4174226522445679,0.0,0.0,0.0,0.0,0.0,0.0,0.0,0.0,0.0,0.7412014007568359,-0.15472625195980072,0.05317656695842743,0.6510331630706787,0.0,-0.11581900715827942,0.0,1021.984130859375,8.082032203674316,1.267507791519165,0.38999998569488525,0.0,0.0,0.0,0.0,0.0,1.401298464324817e-45
138,0.5,0.0,-1.0380933284759521,2.996581554412842,-0.06281951814889908,2.693047285079956,1.3769601583480835,0.9551916718482971,0.28096312284469604,-0.16778264939785004,1.4054512977600098,0.0,0.0,0.0,0.0,0.0,0.0,0.0,0.0,0.0,0.7453227043151855,-0.15348787605762482,0.052849967032670975,0.6466327905654907,0.0,0.0,0.0,1021.9783325195312,8.085537910461426,1.2674847841262817,0.38999998569488525,0.0,0.0,0.0,0.0,0.0,1.401298464324817e-45
138,0.5,0.0,-0.9328321218490601,2.940044641494751,-0.1767445057630539,2.671968936920166,1.322102427482605,0.8110119104385376,0.27796033024787903,-0.1679135411977768,1.3926501274108887,0.0,0.0,0.0,0.0,0.0,0.0,0.0,0.0,0.0,0.749675989151001,-0.15225869417190552,0.05264141410589218,0.6418905258178711,0.0,-0.047113168984651566,0.0,1021.9754638671875,8.084369659423828,1.2674864530563354,0.38999998569488525,0.0,0.0,0.0,0.0,0.0,1.401298464324817e-45
138,0.5,0.0,-0.9287868738174438,2.8632121086120605,-0.01709369570016861,2.5411465167999268,1.3171701431274414,0.9318820834159851,0.2747405767440796,-0.16800060868263245,1.3801727294921875,0.0,0.0,0.0,0.0,0.0,0.0,0.0,0.0,0.0,0.7539149522781372,-0.1509629637002945,0.05232532322406769,0.6372409462928772,0.0,0.0,0.0,1021.9725341796875,8.084369659423828,1.267482876777649,0.38999998569488525,0.0,0.0,0.0,0.0,0.0,1.401298464324817e-45
138,0.5,0.0,-0.8329595327377319,2.867036819458008,-0.045819319784641266,2.5550341606140137,1.2641712427139282,0.8884483575820923,0.2716449797153473,-0.16832976043224335,1.3673087358474731,0.0,0.0,0.0,0.0,0.0,0.0,0.0,0.0,0.0,0.7582175135612488,-0.14979666471481323,0.05199536308646202,0.6324201226234436,0.0,0.023065999150276184,0.0,1021.9696655273438,8.083200454711914,1.2674845457077026,0.38999998569488525,0.0,0.0,0.0,0.0,0.0,1.401298464324817e-45
138,0.5,0.0,-0.863701581954956,2.8768186569213867,0.04475494474172592,2.519237995147705,1.314929485321045,0.9738151431083679,0.2686117887496948,-0.16824188828468323,1.3550870418548584,0.0,0.0,0.0,0.0,0.0,0.0,0.0,0.0,0.0,0.7623122334480286,-0.14851728081703186,0.051759909838438034,0.6278018355369568,0.0,0.0,0.0,1021.9783325195312,8.084369659423828,1.267490029335022,0.38999998569488525,0.0,0.0,0.0,0.0,0.0,1.401298464324817e-45
138,0.5,0.0,-0.8620927333831787,2.876789093017578,-0.0541706457734108,2.5298376083374023,1.364720344543457,0.8714126348495483,0.2651733160018921,-0.16803312301635742,1.3423253297805786,0.0,0.0,0.0,0.0,0.0,0.0,0.0,0.0,0.0,0.7665854096412659,-0.14706309139728546,0.051429927349090576,0.6229491829872131,0.0,-0.02355671115219593,0.0,1021.9869995117188,8.085537910461426,1.2674955129623413,0.38999998569488525,0.0,0.0,0.0,0.0,0.0,1.401298464324817e-45
138,0.5,0.0,-0.7655643820762634,2.778820753097534,-0.022465743124485016,2.435777425765991,1.2812069654464722,0.85661780834198,0.26205703616142273,-0.16817232966423035,1.3298542499542236,0.0,0.0,0.0,0.0,0.0,0.0,0.0,0.0,0.0,0.7706853747367859,-0.14585702121257782,0.05108102411031723,0.618184506893158,0.0,0.0,0.0,1021.9754638671875,8.083200454711914,1.2674916982650757,0.38999998569488525,0.0,0.0,0.0,0.0,0.0,1.401298464324817e-45
138,0.5,0.0,-0.8285995721817017,2.818591594696045,-0.057136572897434235,2.451096296310425,1.3900853395462036,0.833031415939331,0.25836482644081116,-0.1681344211101532,1.3169410228729248,0.0,0.0,0.0,0.0,0.0,0.0,0.0,0.0,0.0,0.7749462127685547,-0.14440925419330597,0.05057833716273308,0.6132190227508545,0.0,-0.13937699794769287,0.0,1022.0043334960938,8.087875366210938,1.26750648021698,0.38999998569488525,0.0,0.0,0.0,0.0,0.0,1.401298464324817e-45
138,0.5,0.0,-0.7806228995323181,2.7827422618865967,-0.027357138693332672,2.4059293270111084,1.364565372467041,0.8385101556777954,0.25511103868484497,-0.1675628274679184,1.3045411109924316,0.0,0.0,0.0,0.0,0.0,0.0,0.0,0.0,0.0,0.7790213227272034,-0.1429082304239273,0.050358209758996964,0.608406662940979,0.0,0.0,0.0,1021.99560546875,8.089043617248535,1.2674903869628906,0.38999998569488525,0.0,0.0,0.0,0.0,0.0,1.401298464324817e-45
138,0.5,0.0,-0.7111091613769531,2.711324691772461,-0.00791172031313181,2.335852861404419,1.3132774829864502,0.8221802115440369,0.25150415301322937,-0.16729378700256348,1.291147232055664,0.0,0.0,0.0,0.0,0.0,0.0,0.0,0.0,0.0,0.783368706703186,-0.14140503108501434,0.049959827214479446,0.6031862497329712,0.0,-0.046132221817970276,0.0,1021.9927368164062,8.087875366210938,1.2674920558929443,0.38999998569488525,0.0,0.0,0.0,0.0,0.0,1.401298464324817e-45
138,0.5,0.0,-0.6271634697914124,2.722813129425049,-0.06448081880807877,2.368068218231201,1.2772108316421509,0.7563432455062866,0.24808970093727112,-0.1671280562877655,1.278459072113037,0.0,0.0,0.0,0.0,0.0,0.0,0.0,0.0,0.0,0.7874456644058228,-0.1400272250175476,0.04954014718532562,0.5982131361961365,0.0,0.0,0.0,1021.9725341796875,8.086706161499023,1.267472267150879,0.38999998569488525,0.0,0.0,0.0,0.0,0.0,1.401298464324817e-45
138,0.5,0.0,-0.7442979216575623,2.7419681549072266,0.05327793210744858,2.307023286819458,1.4087172746658325,0.8764855265617371,0.2446843683719635,-0.16646240651607513,1.2653169631958008,0.0,0.0,0.0,0.0,0.0,0.0,0.0,0.0,0.0,0.7916571497917175,-0.1384536176919937,0.04928826913237572,0.5930190682411194,0.0,0.20907168090343475,0.0,1021.9552001953125,8.085537910461426,1.2674560546875,0.38999998569488525,0.0,0.0,0.0,0.0,0.0,1.401298464324817e-45
138,0.5,0.0,-0.619239091873169,2.6637744903564453,0.03353019803762436,2.260857343673706,1.3039640188217163,0.8175269365310669,0.241336852312088,-0.16586901247501373,1.2527992725372314,0.0,0.0,0.0,0.0,0.0,0.0,0.0,0.0,0.0,0.7956387400627136,-0.13694941997528076,0.04897711053490639,0.5880447626113892,0.0,0.0,0.0,1021.99560546875,8.091381072998047,1.2674798965454102,0.38999998569488525,0.0,0.0,0.0,0.0,0.0,1.401298464324817e-45
138,0.5,0.0,-0.6052803993225098,2.6732819080352783,0.038139306008815765,2.2567965984344482,1.3268663883209229,0.8126614689826965,0.23713627457618713,-0.16431382298469543,1.239484429359436,0.0,0.0,0.0,0.0,0.0,0.0,0.0,0.0,0.0,0.7999445796012878,-0.13480821251869202,0.04863717779517174,0.5827016234397888,0.0,-0.11680293828248978,0.0,1021.99853515625,8.087875366210938,1.267499327659607,0.38999998569488525,0.0,0.0,0.0,0.0,0.0,1.401298464324817e-45
138,0.5,0.0,-0.5528695583343506,2.5982489585876465,0.12963958084583282,2.1682491302490234,1.2734018564224243,0.8662504553794861,0.23311349749565125,-0.16304807364940643,1.2266244888305664,0.0,0.0,0.0,0.0,0.0,0.0,0.0,0.0,0.0,0.8040456175804138,-0.13285383582115173,0.048229388892650604,0.5775169134140015,0.0,0.0,0.0,1022.0043334960938,8.087875366210938,1.26750648021698,0.38999998569488525,0.0,0.0,0.0,0.0,0.0,1.401298464324817e-45
138,0.5,0.0,-0.511137068271637,2.578638792037964,0.05461784452199936,2.1660852432250977,1.2736459970474243,0.7742123007774353,0.22836729884147644,-0.1613650918006897,1.2131491899490356,0.0,0.0,0.0,0.0,0.0,0.0,0.0,0.0,0.0,0.8083617687225342,-0.1305246204137802,0.04766172915697098,0.5720440745353699,0.0,-0.06968873739242554,0.0,1022.0014038085938,8.087875366210938,1.2675029039382935,0.38999998569488525,0.0,0.0,0.0,0.0,0.0,1.401298464324817e-45
138,0.5,0.0,-0.3099018633365631,2.510791540145874,0.15374179184436798,2.137545585632324,1.0801368951797485,0.8293631076812744,0.22462324798107147,-0.16049525141716003,1.1999289989471436,0.0,0.0,0.0,0.0,0.0,0.0,0.0,0.0,0.0,0.8124400973320007,-0.12882065773010254,0.04723010212182999,0.5666630864143372,0.0,0.0,0.0,1022.0042724609375,8.091381072998047,1.2674906253814697,0.38999998569488525,0.0,0.0,0.0,0.0,0.0,1.401298464324817e-45
138,0.5,0.0,-0.4740552008152008,2.5261592864990234,0.06190582364797592,2.0975027084350586,1.2855722904205322,0.7468022704124451,0.2204296886920929,-0.15929043292999268,1.1859400272369385,0.0,0.0,0.0,0.0,0.0,0.0,0.0,0.0,0.0,0.8167461156845093,-0.12684990465641022,0.046734943985939026,0.5609297752380371,0.0,0.000490769452881068,0.0,1021.9840087890625,8.090211868286133,1.2674707174301147,0.38999998569488525,0.0,0.0,0.0,0.0,0.0,1.401298464324817e-45
138,0.5,0.0,-0.34617042541503906,2.4274637699127197,0.09601017087697983,2.033139944076538,1.158281683921814,0.7390908002853394,0.2166995257139206,-0.15936069190502167,1.1723392009735107,0.0,0.0,0.0,0.0,0.0,0.0,0.0,0.0,0.0,0.8207878470420837,-0.12554916739463806,0.04602843523025513,0.555353581905365,0.0,0.0,0.0,1021.9927368164062,8.089043617248535,1.267486810684204,0.38999998569488525,0.0,0.0,0.0,0.0,0.0,1.401298464324817e-45
138,0.5,0.0,-0.45124852657318115,2.359160900115967,0.10616298764944077,1.9128386974334717,1.2594376802444458,0.7316416501998901,0.21312794089317322,-0.15930525958538055,1.1581064462661743,0.0,0.0,0.0,0.0,0.0,0.0,0.0,0.0,0.0,0.8249596357345581,-0.12423979490995407,0.045446280390024185,0.5494833588600159,0.0,0.18600720167160034,0.0,1021.978271484375,8.089043617248535,1.2674689292907715,0.38999998569488525,0.0,0.0,0.0,0.0,0.0,1.401298464324817e-45
138,0.5,0.0,-0.4399852752685547,2.4533252716064453,0.12587638199329376,1.9809311628341675,1.3094929456710815,0.7676408886909485,0.20974262058734894,-0.1591680645942688,1.1447148323059082,0.0,0.0,0.0,0.0,0.0,0.0,0.0,0.0,0.0,0.8288511037826538,-0.1229790449142456,0.04489625617861748,0.5439282059669495,0.0,0.0,0.0,1021.9696044921875,8.086706161499023,1.2674686908721924,0.38999998569488525,0.0,0.0,0.0,0.0,0.0,1.401298464324817e-45
138,0.5,0.0,-0.40085822343826294,2.3766677379608154,0.0953340157866478,1.9174443483352661,1.2797733545303345,0.7097976207733154,0.20611247420310974,-0.15893886983394623,1.1302905082702637,0.0,0.0,0.0,0.0,0.0,0.0,0.0,0.0,0.0,0.8330017328262329,-0.12160549312829971,0.04431591555476189,0.537910521030426,0.0,0.09226660430431366,0.0,1021.9667358398438,8.086706161499023,1.2674651145935059,0.38999998569488525,0.0,0.0,0.0,0.0,0.0,1.401298464324817e-45
138,0.5,0.0,-0.4699772894382477,2.3864588737487793,0.0510081872344017,1.8882991075515747,1.3815491199493408,0.6664932370185852,0.20232346653938293,-0.15894818305969238,1.1164581775665283,0.0,0.0,0.0,0.0,0.0,0.0,0.0,0.0,0.0,0.836944043636322,-0.12031787633895874,0.043551795184612274,0.5321117639541626,0.0,0.0,0.0,1021.9696044921875,8.089043617248535,1.267458200454712,0.38999998569488525,0.0,0.0,0.0,0.0,0.0,1.401298464324817e-45
138,0.5,0.0,-0.34992218017578125,2.338096857070923,0.16571612656116486,1.8573834896087646,1.2654863595962524,0.7517849206924438,0.19835293292999268,-0.15869136154651642,1.1020796298980713,0.0,0.0,0.0,0.0,0.0,0.0,0.0,0.0,0.0,0.8410139083862305,-0.1188761442899704,0.04279732331633568,0.5260456204414368,0.0,0.1393829584121704,0.0,1021.9609375,8.087875366210938,1.2674527168273926,0.38999998569488525,0.0,0.0,0.0,0.0,0.0,1.401298464324817e-45
138,0.5,0.0,-0.3172159790992737,2.3135783672332764,0.12817759811878204,1.841804027557373,1.2597308158874512,0.700317919254303,0.1944875419139862,-0.15796151757240295,1.0884376764297485,0.0,0.0,0.0,0.0,0.0,0.0,0.0,0.0,0.0,0.8448659181594849,-0.11729330569505692,0.0421488955616951,0.5202489495277405,0.0,0.0,0.0,1021.9724731445312,8.089043617248535,1.2674616575241089,0.38999998569488525,0.0,0.0,0.0,0.0,0.0,1.401298464324817e-45
138,0.5,0.0,-0.35923510789871216,2.267194986343384,0.04773803800344467,1.779798150062561,1.3181257247924805,0.6052051782608032,0.19027598202228546,-0.15717686712741852,1.073866844177246,0.0,0.0,0.0,0.0,0.0,0.0,0.0,0.0,0.0,0.8489367961883545,-0.11559497565031052,0.04140033945441246,0.5140247344970703,0.0,0.1629408299922943,0.0,1021.9638061523438,8.090211868286133,1.267445683479309,0.38999998569488525,0.0,0.0,0.0,0.0,0.0,1.401298464324817e-45
138,0.5,0.0,-0.37968239188194275,2.256364583969116,0.19664473831653595,1.7151895761489868,1.335199236869812,0.7411386370658875,0.18654339015483856,-0.15659452974796295,1.0599063634872437,0.0,0.0,0.0,0.0,0.0,0.0,0.0,0.0,0.0,0.8527621626853943,-0.11413045972585678,0.04074894264340401,0.508037269115448,0.0,0.0,0.0,1021.9551391601562,8.090211868286133,1.2674349546432495,0.38999998569488525,0.0,0.0,0.0,0.0,0.0,1.401298464324817e-45
138,0.5,0.0,-0.22433599829673767,2.1658778190612793,0.1878337413072586,1.6974849700927734,1.1870677471160889,0.6971136331558228,0.1824660748243332,-0.1559945046901703,1.0450690984725952,0.0,0.0,0.0,0.0,0.0,0.0,0.0,0.0,0.0,0.8567829132080078,-0.11257068067789078,0.039983950555324554,0.5016409158706665,0.0,-0.06968960165977478,0.0,1021.978271484375,8.089043617248535,1.2674689292907715,0.38999998569488525,0.0,0.0,0.0,0.0,0.0,1.401298464324817e-45
138,0.5,0.0,-0.25657516717910767,2.1771116256713867,0.14559073746204376,1.6822564601898193,1.253424882888794,0.6524559855461121,0.17864878475666046,-0.15456070005893707,1.0310616493225098,0.0,0.0,0.0,0.0,0.0,0.0,0.0,0.0,0.0,0.8605771064758301,-0.11074835062026978,0.039471253752708435,0.4955555200576782,0.0,0.0,0.0,1021.9696044921875,8.090211868286133,1.2674528360366821,0.38999998569488525,0.0,0.0,0.0,0.0,0.0,1.401298464324817e-45
138,0.5,0.0,-0.21449224650859833,2.0561065673828125,0.23352713882923126,1.5697574615478516,1.1715584993362427,0.7009655237197876,0.1744242161512375,-0.1533849835395813,1.0163084268569946,0.0,0.0,0.0,0.0,0.0,0.0,0.0,0.0,0.0,0.8645145297050476,-0.1089378371834755,0.03873494639992714,0.48911964893341064,0.0,0.11582417041063309,0.0,1021.978271484375,8.089043617248535,1.2674689292907715,0.38999998569488525,0.0,0.0,0.0,0.0,0.0,1.401298464324817e-45
138,0.5,0.0,-0.34112825989723206,2.0657711029052734,0.15149016678333282,1.5086333751678467,1.3210407495498657,0.6209087371826172,0.1703195571899414,-0.15238936245441437,1.0020525455474854,0.0,0.0,0.0,0.0,0.0,0.0,0.0,0.0,0.0,0.8682622313499451,-0.1072593703866005,0.03795621544122696,0.48287343978881836,0.0,0.0,0.0,1021.9898071289062,8.090211868286133,1.2674779891967773,0.38999998569488525,0.0,0.0,0.0,0.0,0.0,1.401298464324817e-45
138,0.5,0.0,-0.19415083527565002,2.0042836666107178,0.2436341792345047,1.503050446510315,1.1774858236312866,0.6844705939292908,0.16602252423763275,-0.15152645111083984,0.9866312742233276,0.0,0.0,0.0,0.0,0.0,0.0,0.0,0.0,0.0,0.8722409009933472,-0.1055884063243866,0.03710082173347473,0.4760900139808655,0.0,0.0009815349476411939,0.0,1021.975341796875,8.091381072998047,1.267454743385315,0.38999998569488525,0.0,0.0,0.0,0.0,0.0,1.401298464324817e-45
138,0.5,0.0,-0.1960451602935791,2.0125255584716797,0.2405519038438797,1.492969274520874,1.208456039428711,0.6761388778686523,0.1620059311389923,-0.15015827119350433,0.9721789956092834,0.0,0.0,0.0,0.0,0.0,0.0,0.0,0.0,0.0,0.875945508480072,-0.10379697382450104,0.03641371428966522,0.469692587852478,0.0,0.0,0.0,1021.9667358398438,8.089043617248535,1.2674546241760254,0.38999998569488525,0.0,0.0,0.0,0.0,0.0,1.401298464324817e-45
138,0.5,0.0,-0.2242107093334198,2.0320498943328857,0.175505593419075,1.4853934049606323,1.2778193950653076,0.6091069579124451,0.15750868618488312,-0.14829401671886444,0.956929624080658,0.0,0.0,0.0,0.0,0.0,0.0,0.0,0.0,0.0,0.8798326849937439,-0.10167909413576126,0.03564521670341492,0.462900310754776,0.0,0.06969036906957626,0.0,1021.9666748046875,8.090211868286133,1.2674492597579956,0.38999998569488525,0.0,0.0,0.0,0.0,0.0,1.401298464324817e-45
138,0.5,0.0,-0.12398932874202728,1.859062671661377,0.21469397842884064,1.3813003301620483,1.1176191568374634,0.6003820896148682,0.153425931930542,-0.1464603841304779,0.9423080682754517,0.0,0.0,0.0,0.0,0.0,0.0,0.0,0.0,0.0,0.8834944367408752,-0.09969501197338104,0.034992195665836334,0.456361323595047,0.0,0.0,0.0,1021.972412109375,8.092549324035645,1.2674458026885986,0.38999998569488525,0.0,0.0,0.0,0.0,0.0,1.401298464324817e-45
138,0.5,0.0,-0.13047508895397186,1.8651622533798218,0.197234109044075,1.3683472871780396,1.1527948379516602,0.5773950815200806,0.1491207480430603,-0.14479003846645355,0.9268888235092163,0.0,0.0,0.0,0.0,0.0,0.0,0.0,0.0,0.0,0.8872837424278259,-0.0977349653840065,0.034214917570352554,0.44944000244140625,0.0,0.11631593108177185,0.0,1021.9752807617188,8.093717575073242,1.267444133758545,0.38999998569488525,0.0,0.0,0.0,0.0,0.0,1.401298464324817e-45
138,0.5,0.0,-0.13849303126335144,1.7973273992538452,0.209929421544075,1.2922393083572388,1.1398956775665283,0.569503903388977,0.14496804773807526,-0.14335492253303528,0.9121475219726562,0.0,0.0,0.0,0.0,0.0,0.0,0.0,0.0,0.0,0.8908438086509705,-0.09594119340181351,0.033393021672964096,0.44279664754867554,0.0,0.0,0.0,1021.9522094726562,8.091381072998047,1.2674260139465332,0.38999998569488525,0.0,0.0,0.0,0.0,0.0,1.401298464324817e-45
138,0.5,0.0,-0.11966080218553543,1.74048912525177,0.3013553321361542,1.229858160018921,1.1004396677017212,0.640986442565918,0.1407528668642044,-0.14214777946472168,0.8964875936508179,0.0,0.0,0.0,0.0,0.0,0.0,0.0,0.0,0.0,0.8945410847663879,-0.09423786401748657,0.03251184895634651,0.4357176721096039,0.0,0.0004907755646854639,0.0,1021.972412109375,8.092549324035645,1.2674458026885986,0.38999998569488525,0.0,0.0,0.0,0.0,0.0,1.401298464324817e-45
138,0.5,0.0,-0.08435462415218353,1.808725357055664,0.19966693222522736,1.302842617034912,1.149803638458252,0.5467770099639893,0.13643473386764526,-0.1404743492603302,0.881791353225708,0.0,0.0,0.0,0.0,0.0,0.0,0.0,0.0,0.0,0.8979962468147278,-0.09233783930540085,0.03161490336060524,0.42903172969818115,0.0,0.0,0.0,1021.9636840820312,8.096055030822754,1.2674192190170288,0.38999998569488525,0.0,0.0,0.0,0.0,0.0,1.401298464324817e-45
138,0.5,0.0,-0.03663424775004387,1.739122748374939,0.279053658246994,1.252871036529541,1.0818231105804443,0.6030600666999817,0.13202393054962158,-0.13854505121707916,0.865919828414917,0.0,0.0,0.0,0.0,0.0,0.0,0.0,0.0,0.0,0.9016590118408203,-0.09030278772115707,0.03075670823454857,0.42178434133529663,0.0,0.23263414204120636,0.0,1021.975341796875,8.092549324035645,1.2674494981765747,0.38999998569488525,0.0,0.0,0.0,0.0,0.0,1.401298464324817e-45
138,0.5,0.0,-0.0321718193590641,1.6226222515106201,0.2123536616563797,1.1617072820663452,1.034594178199768,0.5089554786682129,0.12780910730361938,-0.13654330372810364,0.850684642791748,0.0,0.0,0.0,0.0,0.0,0.0,0.0,0.0,0.0,0.9051188230514526,-0.08830295503139496,0.029943982139229774,0.4147975742816925,0.0,0.0,0.0,1021.9752807617188,8.094886779785156,1.2674388885498047,0.38999998569488525,0.0,0.0,0.0,0.0,0.0,1.401298464324817e-45
138,0.5,0.0,-0.01937875524163246,1.6169986724853516,0.2854175269603729,1.140902042388916,1.0326447486877441,0.5731188058853149,0.1234498918056488,-0.13477371633052826,0.8344612717628479,0.0,0.0,0.0,0.0,0.0,0.0,0.0,0.0,0.0,0.9087156057357788,-0.08638224750757217,0.02903182990849018,0.40733614563941956,0.0,-0.20906823873519897,0.0,1021.9868774414062,8.092549324035645,1.2674638032913208,0.38999998569488525,0.0,0.0,0.0,0.0,0.0,1.401298464324817e-45
138,0.5,0.0,-0.06549319624900818,1.580465316772461,0.31929585337638855,1.0638192892074585,1.0578687191009521,0.5943635106086731,0.11921129375696182,-0.13285116851329803,0.8189422488212585,0.0,0.0,0.0,0.0,0.0,0.0,0.0,0.0,0.0,0.9121048450469971,-0.0844452902674675,0.02814633399248123,0.4001663029193878,0.0,0.0,0.0,1021.9810180664062,8.098392486572266,1.2674301862716675,0.38999998569488525,0.0,0.0,0.0,0.0,0.0,1.401298464324817e-45
138,0.5,0.0,-0.054008085280656815,1.5269701480865479,0.32774636149406433,1.0166490077972412,1.0318117141723633,0.5862763524055481,0.1143600195646286,-0.13081710040569305,0.8029375672340393,0.0,0.0,0.0,0.0,0.0,0.0,0.0,0.0,0.0,0.9155548810958862,-0.0823507234454155,0.02699289843440056,0.392734557390213,0.0,-0.06969047337770462,0.0,1021.9896850585938,8.097223281860352,1.2674461603164673,0.38999998569488525,0.0,0.0,0.0,0.0,0.0,1.401298464324817e-45
138,0.5,0.0,0.0025060903280973434,1.4948049783706665,0.2526502311229706,1.0272608995437622,0.9972612857818604,0.4984428286552429,0.10954798012971878,-0.12790946662425995,0.7877653241157532,0.0,0.0,0.0,0.0,0.0,0.0,0.0,0.0,0.0,0.918809175491333,-0.07989604026079178,0.025960590690374374,0.3856470286846161,0.0,0.0,0.0,1021.9781494140625,8.097223281860352,1.2674318552017212,0.38999998569488525,0.0,0.0,0.0,0.0,0.0,1.401298464324817e-45
138,0.5,0.0,-0.01838667504489422,1.511375069618225,0.299526184797287,1.0035457611083984,1.0367860794067383,0.5405901074409485,0.10489919036626816,-0.12524834275245667,0.7715643644332886,0.0,0.0,0.0,0.0,0.0,0.0,0.0,0.0,0.0,0.9221779704093933,-0.07759197056293488,0.024960918352007866,0.37806808948516846,0.0,-0.11582334339618683,0.0,1021.9984130859375,8.096055030822754,1.2674622535705566,0.38999998569488525,0.0,0.0,0.0,0.0,0.0,1.401298464324817e-45
138,0.5,0.0,0.06081639230251312,1.3237570524215698,0.32971665263175964,0.9142103791236877,0.8626649379730225,0.5336112976074219,0.10088542103767395,-0.12277764081954956,0.7558906674385071,0.0,0.0,0.0,0.0,0.0,0.0,0.0,0.0,0.0,0.9253485798835754,-0.07551877200603485,0.02416468784213066,0.3707214593887329,0.0,0.0,0.0,1021.9839477539062,8.094886779785156,1.2674496173858643,0.38999998569488525,0.0,0.0,0.0,0.0,0.0,1.401298464324817e-45
138,0.5,0.0,-0.013371913693845272,1.291394829750061,0.27433010935783386,0.8297109603881836,0.9138070344924927,0.46866145730018616,0.09663292020559311,-0.11984953284263611,0.7392753958702087,0.0,0.0,0.0,0.0,0.0,0.0,0.0,0.0,0.0,0.9286494255065918,-0.07319612056016922,0.023343725129961967,0.3629039227962494,0.0,0.0,0.0,1021.9955444335938,8.094886779785156,1.2674640417099,0.38999998569488525,0.0,0.0,0.0,0.0,0.0,1.401298464324817e-45
138,0.5,0.0,0.04217727854847908,1.261522889137268,0.3579358756542206,0.8299200534820557,0.8604081273078918,0.5405899286270142,0.092235267162323,-0.11724922060966492,0.7233081459999084,0.0,0.0,0.0,0.0,0.0,0.0,0.0,0.0,0.0,0.9317535161972046,-0.07102613151073456,0.02233659103512764,0.35536324977874756,0.0,0.0,0.0,1021.966552734375,8.099560737609863,1.267406940460205,0.38999998569488525,0.0,0.0,0.0,0.0,0.0,1.401298464324817e-45
138,0.5,0.0,-0.02283671125769615,1.1750210523605347,0.35422417521476746,0.7111220955848694,0.8550412654876709,0.5194752812385559,0.08814958482980728,-0.11442845314741135,0.7062598466873169,0.0,0.0,0.0,0.0,0.0,0.0,0.0,0.0,0.0,0.9349744319915771,-0.06881505250930786,0.021517625078558922,0.34729766845703125,0.0,0.18601104617118835,0.0,1021.969482421875,8.094886779785156,1.267431616783142,0.38999998569488525,0.0,0.0,0.0,0.0,0.0,1.401298464324817e-45
138,0.5,0.0,0.023419557139277458,1.1584703922271729,0.3482818305492401,0.7237281799316406,0.8271639943122864,0.5058598518371582,0.0842902734875679,-0.11151409149169922,0.6903052926063538,0.0,0.0,0.0,0.0,0.0,0.0,0.0,0.0,0.0,0.9379286170005798,-0.06662782281637192,0.020748136565089226,0.339722603559494,0.0,0.0,0.0,1021.9752807617188,8.093717575073242,1.267444133758545,0.38999998569488525,0.0,0.0,0.0,0.0,0.0,1.401298464324817e-45
138,0.5,0.0,0.027958232909440994,1.1242398023605347,0.3951968848705292,0.6887961030006409,0.8075425028800964,0.5424836277961731,0.07997436821460724,-0.10871130228042603,0.6730514168739319,0.0,0.0,0.0,0.0,0.0,0.0,0.0,0.0,0.0,0.941038966178894,-0.06442143768072128,0.019753064960241318,0.3315071165561676,0.0,-0.20907171070575714,0.0,1021.98681640625,8.097223281860352,1.2674425840377808,0.38999998569488525,0.0,0.0,0.0,0.0,0.0,1.401298464324817e-45
138,0.5,0.0,0.09765569865703583,1.0185459852218628,0.3141650855541229,0.6736563444137573,0.7039380669593811,0.44307005405426025,0.07548139989376068,-0.10613415390253067,0.6569293737411499,0.0,0.0,0.0,0.0,0.0,0.0,0.0,0.0,0.0,0.9438835382461548,-0.062325313687324524,0.01856580562889576,0.32379966974258423,0.0,0.0,0.0,1021.9983520507812,8.098392486572266,1.2674516439437866,0.38999998569488525,0.0,0.0,0.0,0.0,0.0,1.401298464324817e-45
138,0.5,0.0,-0.023601336404681206,0.9843816757202148,0.36703869700431824,0.5408871173858643,0.7579611539840698,0.487030565738678,0.07144080102443695,-0.10279545187950134,0.6395070552825928,0.0,0.0,0.0,0.0,0.0,0.0,0.0,0.0,0.0,0.9468737244606018,-0.05995064601302147,0.017719505354762077,0.31545767188072205,0.0,0.06969239562749863,0.0,1021.9608154296875,8.096055030822754,1.2674156427383423,0.38999998569488525,0.0,0.0,0.0,0.0,0.0,1.401298464324817e-45
138,0.5,0.0,0.040797457098960876,1.0143053531646729,0.3549604117870331,0.5998366475105286,0.7567919492721558,0.47320041060447693,0.06718672811985016,-0.09895142912864685,0.6231614351272583,0.0,0.0,0.0,0.0,0.0,0.0,0.0,0.0,0.0,0.9496356844902039,-0.05733150243759155,0.016778206452727318,0.30759549140930176,0.0,0.0,0.0,1021.966552734375,8.097223281860352,1.267417550086975,0.38999998569488525,0.0,0.0,0.0,0.0,0.0,1.401298464324817e-45
138,0.5,0.0,0.08404665440320969,0.8878340721130371,0.36126992106437683,0.5509166121482849,0.6413698196411133,0.45929205417633057,0.0621793195605278,-0.09517008066177368,0.6055654287338257,0.0,0.0,0.0,0.0,0.0,0.0,0.0,0.0,0.0,0.9525243043899536,-0.05463944002985954,0.015460642985999584,0.2991061508655548,0.0,-0.047115910798311234,0.0,1021.9983520507812,8.100728988647461,1.2674411535263062,0.38999998569488525,0.0,0.0,0.0,0.0,0.0,1.401298464324817e-45
138,0.5,0.0,0.02275584079325199,0.8787121176719666,0.36786362528800964,0.4846353828907013,0.6790971755981445,0.4603438675403595,0.05833497270941734,-0.09091053158044815,0.5888286828994751,0.0,0.0,0.0,0.0,0.0,0.0,0.0,0.0,0.0,0.955188512802124,-0.051919665187597275,0.014699832536280155,0.2910233438014984,0.0,0.0,0.0,1021.9780883789062,8.099560737609863,1.2674212455749512,0.38999998569488525,0.0,0.0,0.0,0.0,0.0,1.401298464324817e-45
138,0.5,0.0,0.07407382130622864,0.74302077293396,0.4025821387767792,0.4414280354976654,0.5456385016441345,0.47649407386779785,0.053914591670036316,-0.0875026136636734,0.5708197951316833,0.0,0.0,0.0,0.0,0.0,0.0,0.0,0.0,0.0,0.9579437375068665,-0.049534283578395844,0.013529246672987938,0.2823091447353363,0.0,-0.21005675196647644,0.0,1021.9839477539062,8.096055030822754,1.267444372177124,0.38999998569488525,0.0,0.0,0.0,0.0,0.0,1.401298464324817e-45
138,0.5,0.0,-0.010796855203807354,0.7483320832252502,0.5229873061180115,0.3578852117061615,0.5946519374847412,0.5932334661483765,0.04977493733167648,-0.08367278426885605,0.5538055300712585,0.0,0.0,0.0,0.0,0.0,0.0,0.0,0.0,0.0,0.9604787826538086,-0.047015391290187836,0.012485900893807411,0.2740538716316223,0.0,0.0,0.0,1021.98388671875,8.100728988647461,1.267423152923584,0.38999998569488525,0.0,0.0,0.0,0.0,0.0,1.401298464324817e-45
138,0.5,0.0,0.03441909700632095,0.6775139570236206,0.35532471537590027,0.3586827218532562,0.5335944294929504,0.41602757573127747,0.04618609696626663,-0.07960345596075058,0.5358096361160278,0.0,0.0,0.0,0.0,0.0,0.0,0.0,0.0,0.0,0.9630595445632935,-0.044469013810157776,0.01171940565109253,0.26531630754470825,0.0,0.0009815756930038333,0.0,1021.9751586914062,8.103066444396973,1.2674018144607544,0.38999998569488525,0.0,0.0,0.0,0.0,0.0,1.401298464324817e-45
138,0.5,0.0,0.10535865277051926,0.5662834644317627,0.34922024607658386,0.35710832476615906,0.4109605848789215,0.39662256836891174,0.04235536977648735,-0.07511160522699356,0.5186911821365356,0.0,0.0,0.0,0.0,0.0,0.0,0.0,0.0,0.0,0.9654518365859985,-0.04170979931950569,0.01082693599164486,0.2569772005081177,0.0,0.0,0.0,1021.9780883789062,8.099560737609863,1.2674212455749512,0.38999998569488525,0.0,0.0,0.0,0.0,0.0,1.401298464324817e-45
138,0.5,0.0,0.05234604328870773,0.5735613107681274,0.339870423078537,0.3080306649208069,0.45181718468666077,0.38496139645576477,0.038072094321250916,-0.07119306921958923,0.5005954504013062,0.0,0.0,0.0,0.0,0.0,0.0,0.0,0.0,0.0,0.9678776264190674,-0.039185456931591034,0.00961664691567421,0.2481459230184555,0.0,-0.1629422903060913,0.0,1021.9925537109375,8.100728988647461,1.267434000968933,0.38999998569488525,0.0,0.0,0.0,0.0,0.0,1.401298464324817e-45
138,0.5,0.0,0.057227972894907,0.5385419726371765,0.38446709513664246,0.2874612808227539,0.42295679450035095,0.4237726628780365,0.03450221195816994,-0.0667562261223793,0.4832320213317871,0.0,0.0,0.0,0.0,0.0,0.0,0.0,0.0,0.0,0.9701253771781921,-0.03652280569076538,0.008756177499890327,0.2396610677242279,0.0,0.0,0.0,1021.9780883789062,8.099560737609863,1.2674212455749512,0.38999998569488525,0.0,0.0,0.0,0.0,0.0,1.401298464324817e-45
138,0.5,0.0,0.04129234701395035,0.4962368607521057,0.3573465049266815,0.2484952062368393,0.40167883038520813,0.39057692885398865,0.030519915744662285,-0.06162822246551514,0.4652138352394104,0.0,0.0,0.0,0.0,0.0,0.0,0.0,0.0,0.0,0.9723809957504272,-0.03349174186587334,0.007740293629467487,0.23083524405956268,0.0,-0.13938452303409576,0.0,1021.9722900390625,8.100728988647461,1.267408847808838,0.38999998569488525,0.0,0.0,0.0,0.0,0.0,1.401298464324817e-45
138,0.5,0.0,0.0063344757072627544,0.35520315170288086,0.3724336326122284,0.14913034439086914,0.2955992519855499,0.3940722644329071,0.027701420709490776,-0.05664285272359848,0.4478047490119934,0.0,0.0,0.0,0.0,0.0,0.0,0.0,0.0,0.0,0.9744626879692078,-0.030682062730193138,0.007212271448224783,0.22230739891529083,0.0,0.0,0.0,1021.9693603515625,8.103066444396973,1.2673946619033813,0.38999998569488525,0.0,0.0,0.0,0.0,0.0,1.401298464324817e-45
138,0.5,0.0,0.06255748867988586,0.37806063890457153,0.42733094096183777,0.20394599437713623,0.29448625445365906,0.44847896695137024,0.02376723848283291,-0.052850477397441864,0.42905160784721375,0.0,0.0,0.0,0.0,0.0,0.0,0.0,0.0,0.0,0.9765964150428772,-0.028343472629785538,0.005982499569654465,0.21310068666934967,0.0,-0.27974870800971985,0.0,1021.9867553710938,8.101898193359375,1.2674214839935303,0.38999998569488525,0.0,0.0,0.0,0.0,0.0,1.401298464324817e-45
138,0.5,0.0,-0.05343616381287575,0.22500453889369965,0.3339862525463104,0.033710479736328125,0.2110251933336258,0.3454829454421997,0.02177589014172554,-0.04871600493788719,0.41136765480041504,0.0,0.0,0.0,0.0,0.0,0.0,0.0,0.0,0.0,0.9785148501396179,-0.026063723489642143,0.005681127775460482,0.20442268252372742,0.0,0.0,0.0,1021.9664916992188,8.101898193359375,1.267396330833435,0.38999998569488525,0.0,0.0,0.0,0.0,0.0,1.401298464324817e-45
138,0.5,0.0,0.05437815934419632,0.24161188304424286,0.41802307963371277,0.13538837432861328,0.18321502208709717,0.4291559159755707,0.017496304586529732,-0.04513348266482353,0.39282357692718506,0.0,0.0,0.0,0.0,0.0,0.0,0.0,0.0,0.0,0.9804431796073914,-0.02383679896593094,0.004174326546490192,0.19528697431087494,0.0,0.11632028222084045,0.0,1021.9722290039062,8.10423469543457,1.2673929929733276,0.38999998569488525,0.0,0.0,0.0,0.0,0.0,1.401298464324817e-45
138,0.5,0.0,-0.043789561837911606,0.1839866042137146,0.411800354719162,0.020203465595841408,0.17110583186149597,0.4191173017024994,0.01599578931927681,-0.038756344467401505,0.375807523727417,0.0,0.0,0.0,0.0,0.0,0.0,0.0,0.0,0.0,0.982149064540863,-0.02052891254425049,0.0042361048981547356,0.18691039085388184,0.0,0.0,0.0,1021.9664916992188,8.103066444396973,1.2673910856246948,0.38999998569488525,0.0,0.0,0.0,0.0,0.0,1.401298464324817e-45
138,0.5,0.0,0.0012645558454096317,0.10566656291484833,0.39920803904533386,0.03292115032672882,0.08468873798847198,0.40283408761024475,0.013628415763378143,-0.03432388976216316,0.3595767915248871,0.0,0.0,0.0,0.0,0.0,0.0,0.0,0.0,0.0,0.9836888909339905,-0.01810237392783165,0.003634673310443759,0.17890521883964539,0.0,-0.06969394534826279,0.0,1021.9837646484375,8.106572151184082,1.2673966884613037,0.38999998569488525,0.0,0.0,0.0,0.0,0.0,1.401298464324817e-45
138,0.5,0.0,0.03168237581849098,0.07030855119228363,0.3715839087963104,0.049563854932785034,0.04257693514227867,0.37383148074150085,0.010928785428404808,-0.03442070633172989,0.3456268012523651,0.0,0.0,0.0,0.0,0.0,0.0,0.0,0.0,0.0,0.9849241375923157,-0.01789233274757862,0.002423001453280449,0.17201843857765198,0.0,0.0,0.0,1021.9722900390625,8.103066444396973,1.2673982381820679,0.38999998569488525,0.0,0.0,0.0,0.0,0.0,1.401298464324817e-45
138,0.5,0.0,-0.022422971203923225,0.05470092222094536,0.37094590067863464,-0.007620286196470261,0.04793739691376686,0.37247490882873535,0.011686860583722591,-0.029833201318979263,0.3334256112575531,0.0,0.0,0.0,0.0,0.0,0.0,0.0,0.0,0.0,0.9859907031059265,-0.015678495168685913,0.0032866215333342552,0.16600565612316132,0.0,0.02355833165347576,0.0,1021.9664306640625,8.105403900146484,1.2673804759979248,0.38999998569488525,0.0,0.0,0.0,0.0,0.0,1.401298464324817e-45
138,0.5,0.0,0.019123166799545288,0.019356539472937584,0.3859882056713104,0.020121483132243156,0.0011226922506466508,0.38641786575317383,0.010854325257241726,-0.028716644272208214,0.3258070945739746,0.0,0.0,0.0,0.0,0.0,0.0,0.0,0.0,0.0,0.9866277575492859,-0.015047580935060978,0.0030261860229074955,0.162241131067276,0.0,0.0,0.0,1021.957763671875,8.105403900146484,1.2673697471618652,0.38999998569488525,0.0,0.0,0.0,0.0,0.0,1.401298464324817e-45
138,0.5,0.0,-0.014398000203073025,0.03883156552910805,0.4566764533519745,-0.005444626789540052,0.028976038098335266,0.4575982093811035,0.008976017124950886,-0.027161117643117905,0.322569876909256,0.0,0.0,0.0,0.0,0.0,0.0,0.0,0.0,0.0,0.9869072437286377,-0.014124356210231781,0.002248597564175725,0.16062970459461212,0.0,-0.023558473214507103,0.0,1021.9722290039062,8.106572151184082,1.2673823833465576,0.38999998569488525,0.0,0.0,0.0,0.0,0.0,1.401298464324817e-45
138,0.5,0.0,0.022020511329174042,0.044539883732795715,0.4121045768260956,0.03142877295613289,0.026703743264079094,0.4130319058895111,0.008343025110661983,-0.021060945466160774,0.3187282085418701,0.0,0.0,0.0,0.0,0.0,0.0,0.0,0.0,0.0,0.98725426197052,-0.011058654636144638,0.002447395585477352,0.15872296690940857,0.0,0.0,0.0,1021.957763671875,8.106572151184082,1.267364501953125,0.38999998569488525,0.0,0.0,0.0,0.0,0.0,1.401298464324817e-45
138,0.5,0.0,0.016672715544700623,-0.005194307304918766,0.4279889762401581,0.010918766260147095,-0.019933391362428665,0.4277384877204895,0.00771448016166687,-0.02289671078324318,0.3171839118003845,0.0,0.0,0.0,0.0,0.0,0.0,0.0,0.0,0.0,0.9873679280281067,-0.011913440190255642,0.002000633394345641,0.1579594761133194,0.0,-0.20907779037952423,0.0,1021.9751586914062,8.105403900146484,1.267391324043274,0.38999998569488525,0.0,0.0,0.0,0.0,0.0,1.401298464324817e-45
138,0.5,0.0,-0.010735147632658482,0.04734596610069275,0.43457314372062683,0.0006953401025384665,0.037109944969415665,0.4356948435306549,0.008869942277669907,-0.025791674852371216,0.3168313503265381,0.0,0.0,0.0,0.0,0.0,0.0,0.0,0.0,0.0,0.9873736500740051,-0.013433408923447132,0.002344792941585183,0.15779508650302887,0.0,0.0,0.0,1021.9519653320312,8.106572151184082,1.2673572301864624,0.38999998569488525,0.0,0.0,0.0,0.0,0.0,1.401298464324817e-45
138,0.5,0.0,0.02539622038602829,0.029929937794804573,0.3842925727367401,0.03030659258365631,0.011314885690808296,0.38493210077285767,0.008228396065533161,-0.023889267817139626,0.3174644112586975,0.0,0.0,0.0,0.0,0.0,0.0,0.0,0.0,0.0,0.9873380661010742,-0.012444316409528255,0.0021742128301411867,0.15810178220272064,0.0,-0.2090812623500824,0.0,1021.9866333007812,8.110077857971191,1.2673845291137695,0.38999998569488525,0.0,0.0,0.0,0.0,0.0,1.401298464324817e-45
138,0.5,0.0,0.04149511083960533,0.002101810649037361,0.428650826215744,0.03750810772180557,-0.022184133529663086,0.4284457564353943,0.006031003315001726,-0.026333825662732124,0.3159412145614624,0.0,0.0,0.0,0.0,0.0,0.0,0.0,0.0,0.0,0.9874482154846191,-0.013476818799972534,0.0009064364130608737,0.15733863413333893,0.0,0.0,0.0,1021.97216796875,8.108909606933594,1.2673717737197876,0.38999998569488525,0.0,0.0,0.0,0.0,0.0,1.401298464324817e-45
138,0.5,0.0,0.04278948903083801,-0.01582130789756775,0.3285188376903534,0.03272490203380585,-0.03673958778381348,0.32799920439720154,0.009208686649799347,-0.025580650195479393,0.31607744097709656,0.0,0.0,0.0,0.0,0.0,0.0,0.0,0.0,0.0,0.9874335527420044,-0.013354983180761337,0.002533713821321726,0.1574246883392334,0.0,0.1158309057354927,0.0,1021.9490966796875,8.106572151184082,1.2673537731170654,0.38999998569488525,0.0,0.0,0.0,0.0,0.0,1.401298464324817e-45
138,0.5,0.0,0.003986148163676262,0.108256995677948,0.43964096903800964,0.03279498964548111,0.09199007600545883,0.4421297013759613,0.010682380758225918,-0.02186446078121662,0.31661251187324524,0.0,0.0,0.0,0.0,0.0,0.0,0.0,0.0,0.0,0.9874094724655151,-0.011637084186077118,0.003550728317350149,0.15769122540950775,0.0,0.0,0.0,1021.9606323242188,8.10774040222168,1.2673627138137817,0.38999998569488525,0.0,0.0,0.0,0.0,0.0,1.401298464324817e-45
138,0.5,0.0,0.0018028048798441887,-0.003732070792466402,0.3997487723827362,-0.0025602031964808702,-0.014082462526857853,0.39951080083847046,0.007804134860634804,-0.024961499497294426,0.3146015405654907,0.0,0.0,0.0,0.0,0.0,0.0,0.0,0.0,0.0,0.9875577688217163,-0.012937420047819614,0.001898524584248662,0.1566869616508484,0.0,0.20908384025096893,0.0,1021.9404907226562,8.100728988647461,1.2673693895339966,0.38999998569488525,0.0,0.0,0.0,0.0,0.0,1.401298464324817e-45
138,0.5,0.0,0.030139103531837463,-0.06109444797039032,0.3874339759349823,0.005556437186896801,-0.07740625739097595,0.38564345240592957,0.01083303987979889,-0.025826655328273773,0.31461426615715027,0.0,0.0,0.0,0.0,0.0,0.0,0.0,0.0,0.0,0.9875409603118896,-0.013601765967905521,0.0033262926153838634,0.15671224892139435,0.0,0.0,0.0,1021.9288940429688,8.105403900146484,1.267333984375,0.38999998569488525,0.0,0.0,0.0,0.0,0.0,1.401298464324817e-45
138,0.5,0.0,0.05780767649412155,0.042734190821647644,0.36261841654777527,0.06578493118286133,0.01362825557589531,0.3635168671607971,0.006719654891639948,-0.02485884353518486,0.3159065544605255,0.0,0.0,0.0,0.0,0.0,0.0,0.0,0.0,0.0,0.9874590039253235,-0.012802710756659508,0.0013627070002257824,0.157324880361557,0.0,-0.09325197339057922,0.0,1021.9838256835938,8.105403900146484,1.2674020528793335,0.38999998569488525,0.0,0.0,0.0,0.0,0.0,1.401298464324817e-45
138,0.5,0.0,0.0022988144773989916,-0.08457542210817337,0.3595723807811737,-0.02765010856091976,-0.09063076972961426,0.3570292890071869,0.009640789590775967,-0.026675553992390633,0.31706857681274414,0.0,0.0,0.0,0.0,0.0,0.0,0.0,0.0,0.0,0.9873462915420532,-0.013930854387581348,0.0026539701502770185,0.1579180210828781,0.0,0.0,0.0,1021.9519653320312,8.10774040222168,1.2673519849777222,0.38999998569488525,0.0,0.0,0.0,0.0,0.0,1.401298464324817e-45
138,0.5,0.0,0.02219402603805065,0.02045520953834057,0.44951626658439636,0.024681566283106804,0.0009322193800471723,0.44984734058380127,0.006187306251376867,-0.025761933997273445,0.3169306814670563,0.0,0.0,0.0,0.0,0.0,0.0,0.0,0.0,0.0,0.9873738288879395,-0.013207262381911278,0.0010220642434433103,0.15782785415649414,0.0,0.16245949268341064,0.0,1021.9520263671875,8.103066444396973,1.2673732042312622,0.38999998569488525,0.0,0.0,0.0,0.0,0.0,1.401298464324817e-45
138,0.5,0.0,0.015995968133211136,0.025148293003439903,0.4131269156932831,0.020650403574109077,0.008835209533572197,0.4135878384113312,0.005775534547865391,-0.024368949234485626,0.3169397711753845,0.0,0.0,0.0,0.0,0.0,0.0,0.0,0.0,0.0,0.9873830080032349,-0.012487084604799747,0.0009286415297538042,0.1578291952610016,0.0,0.0,0.0,1021.97802734375,8.106572151184082,1.2673896551132202,0.38999998569488525,0.0,0.0,0.0,0.0,0.0,1.401298464324817e-45
138,0.5,0.0,-0.06551479548215866,0.053792212158441544,0.3042392432689667,-0.048186253756284714,0.06514360010623932,0.3052542507648468,0.008276310749351978,-0.020587852224707603,0.3143741190433502,0.0,0.0,0.0,0.0,0.0,0.0,0.0,0.0,0.0,0.9876002073287964,-0.010814466513693333,0.002475557615980506,0.1565724015235901,0.0,-0.1629483699798584,0.0,1021.992431640625,8.10774040222168,1.267402172088623,0.38999998569488525,0.0,0.0,0.0,0.0,0.0,1.401298464324817e-45
138,0.5,0.0,-0.0035953307524323463,0.007522449363023043,0.38530442118644714,-0.005125677213072777,-0.0012911588419228792,0.3853553533554077,0.01047513261437416,-0.024802155792713165,0.3147754669189453,0.0,0.0,0.0,0.0,0.0,0.0,0.0,0.0,0.0,0.987536609172821,-0.013068137690424919,0.00322878360748291,0.15678811073303223,0.0,0.0,0.0,1022.0098266601562,8.106572151184082,1.267428994178772,0.38999998569488525,0.0,0.0,0.0,0.0,0.0,1.401298464324817e-45
138,0.5,0.0,0.048608358949422836,0.042646124958992004,0.4047403037548065,0.05618571117520332,0.017399689182639122,0.4056278169155121,0.007938875816762447,-0.020110273733735085,0.3139060139656067,0.0,0.0,0.0,0.0,0.0,0.0,0.0,0.0,0.0,0.9876402616500854,-0.010551685467362404,0.002348785987123847,0.15633906424045563,0.0,0.022577296942472458,0.0,1021.9866943359375,8.106572151184082,1.2674003839492798,0.38999998569488525,0.0,0.0,0.0,0.0,0.0,1.401298464324817e-45
138,0.5,0.0,0.00368381361477077,-0.03899848088622093,0.4515065848827362,-0.013492397032678127,-0.049832504242658615,0.4502488970756531,0.011087014339864254,-0.025710273534059525,0.3125782608985901,0.0,0.0,0.0,0.0,0.0,0.0,0.0,0.0,0.0,0.9876999258995056,-0.013560653664171696,0.003474627388641238,0.1557081639766693,0.0,0.0,0.0,1021.957763671875,8.10774040222168,1.2673592567443848,0.38999998569488525,0.0,0.0,0.0,0.0,0.0,1.401298464324817e-45
138,0.5,0.0,0.01793682761490345,-0.08023696392774582,0.3523368537425995,-0.011615272611379623,-0.0911824032664299,0.34992823004722595,0.010545488446950912,-0.02661943808197975,0.31617072224617004,0.0,0.0,0.0,0.0,0.0,0.0,0.0,0.0,0.0,0.9874144196510315,-0.013973135501146317,0.003111310536041856,0.15748029947280884,0.0,-0.09325313568115234,0.0,1021.9982299804688,8.106572151184082,1.2674146890640259,0.38999998569488525,0.0,0.0,0.0,0.0,0.0,1.401298464324817e-45
138,0.5,0.0,-0.015932077541947365,0.053943853825330734,0.4700593650341034,-0.003274066373705864,0.045078251510858536,0.4712465703487396,0.010664275847375393,-0.023672334849834442,0.3180994689464569,0.0,0.0,0.0,0.0,0.0,0.0,0.0,0.0,0.0,0.9872812032699585,-0.012530732899904251,0.003389929188415408,0.158428356051445,0.0,0.0,0.0,1021.989501953125,8.108909606933594,1.2673933506011963,0.38999998569488525,0.0,0.0,0.0,0.0,0.0,1.401298464324817e-45
138,0.5,0.0,-0.018279189243912697,-0.023090654984116554,0.38675495982170105,-0.028311073780059814,-0.026733960956335068,0.38591206073760986,0.00957327987998724,-0.02733669802546501,0.31969913840293884,0.0,0.0,0.0,0.0,0.0,0.0,0.0,0.0,0.0,0.9871334433555603,-0.014255284331738949,0.0025496892631053925,0.1592169851064682,0.0,-0.02355876751244068,0.0,1021.989501953125,8.112415313720703,1.267377495765686,0.38999998569488525,0.0,0.0,0.0,0.0,0.0,1.401298464324817e-45
138,0.5,0.0,0.02955208532512188,0.05587176978588104,0.419251412153244,0.04256231337785721,0.034271616488695145,0.42044952511787415,0.007280527148395777,-0.02256743609905243,0.31974729895591736,0.0,0.0,0.0,0.0,0.0,0.0,0.0,0.0,0.0,0.9871675968170166,-0.011718937195837498,0.0017973810900002718,0.15922221541404724,0.0,0.0,0.0,1021.9895629882812,8.10774040222168,1.2673985958099365,0.38999998569488525,0.0,0.0,0.0,0.0,0.0,1.401298464324817e-45
138,0.5,0.0,-0.02082316018640995,0.04593649506568909,0.4488315284252167,-0.009835020639002323,0.03912842646241188,0.4498472809791565,0.00999407097697258,-0.02453118935227394,0.3193269371986389,0.0,0.0,0.0,0.0,0.0,0.0,0.0,0.0,0.0,0.9871806502342224,-0.012903483584523201,0.002983128186315298,0.1590319275856018,0.0,-0.02355906181037426,0.0,1021.989501953125,8.111246109008789,1.2673827409744263,0.38999998569488525,0.0,0.0,0.0,0.0,0.0,1.401298464324817e-45
138,0.5,0.0,-0.07631894201040268,0.06439699232578278,0.355408638715744,-0.05651560425758362,0.07628144323825836,0.3567516505718231,0.011825081892311573,-0.024660557508468628,0.31847766041755676,0.0,0.0,0.0,0.0,0.0,0.0,0.0,0.0,0.0,0.9872403740882874,-0.013111166656017303,0.0038822030182927847,0.15862321853637695,0.0,0.0,0.0,1021.9749755859375,8.114751815795898,1.2673490047454834,0.38999998569488525,0.0,0.0,0.0,0.0,0.0,1.401298464324817e-45
138,0.5,0.0,0.021219022572040558,0.019209392368793488,0.4346923530101776,0.023228373378515244,0.0013200528919696808,0.435008704662323,0.006772118620574474,-0.0236012302339077,0.31900230050086975,0.0,0.0,0.0,0.0,0.0,0.0,0.0,0.0,0.0,0.9872221946716309,-0.012188201770186424,0.0014686723006889224,0.15885260701179504,0.0,0.04662707820534706,0.0,1021.9837036132812,8.1135835647583,1.2673650979995728,0.38999998569488525,0.0,0.0,0.0,0.0,0.0,1.401298464324817e-45
138,0.5,0.0,0.007570954505354166,0.022764191031455994,0.4270324409008026,0.010975131765007973,0.01006934605538845,0.4274429678916931,0.007720232475548983,-0.021561549976468086,0.3161025643348694,0.0,0.0,0.0,0.0,0.0,0.0,0.0,0.0,0.0,0.9874606728553772,-0.011253600008785725,0.002115009119734168,0.15742424130439758,0.0,0.0,0.0,1021.9722290039062,8.10774040222168,1.2673771381378174,0.38999998569488525,0.0,0.0,0.0,0.0,0.0,1.401298464324817e-45
138,0.5,0.0,-0.018570439890027046,0.04489725083112717,0.37628456950187683,-0.006418855395168066,0.04026969522237778,0.3772077262401581,0.007409984245896339,-0.02171343006193638,0.31739550828933716,0.0,0.0,0.0,0.0,0.0,0.0,0.0,0.0,0.0,0.987358808517456,-0.011305439285933971,0.001942563452757895,0.1580611765384674,0.0,-0.047117866575717926,0.0,1021.989501953125,8.108909606933594,1.2673933506011963,0.38999998569488525,0.0,0.0,0.0,0.0,0.0,1.401298464324817e-45
138,0.5,0.0,-0.09793327003717422,0.0634288340806961,0.3265809714794159,-0.07706709206104279,0.08330635726451874,0.3277011513710022,0.011925555765628815,-0.023177901282906532,0.3181397616863251,0.0,0.0,0.0,0.0,0.0,0.0,0.0,0.0,0.0,0.9872762560844421,-0.012386573478579521,0.004051483701914549,0.1584540456533432,0.0,0.0,0.0,1021.9606323242188,8.110077857971191,1.2673522233963013,0.38999998569488525,0.0,0.0,0.0,0.0,0.0,1.401298464324817e-45
138,0.5,0.0,0.003119646105915308,0.06793447583913803,0.3543367087841034,0.02173069305717945,0.055497366935014725,0.3558441698551178,0.007352382410317659,-0.022535841912031174,0.3200873136520386,0.0,0.0,0.0,0.0,0.0,0.0,0.0,0.0,0.0,0.9871404767036438,-0.011709373444318771,0.001833372749388218,0.159390389919281,0.0,-0.13939088582992554,0.0,1021.9749755859375,8.115921020507812,1.2673436403274536,0.38999998569488525,0.0,0.0,0.0,0.0,0.0,1.401298464324817e-45
138,0.5,0.0,-0.03791240602731705,0.010218415409326553,0.38492485880851746,-0.036682747304439545,0.012675415724515915,0.3849678635597229,0.010184647515416145,-0.023295225575566292,0.32041481137275696,0.0,0.0,0.0,0.0,0.0,0.0,0.0,0.0,0.0,0.9871010780334473,-0.012310289777815342,0.0031687812879681587,0.15956799685955048,0.0,0.0,0.0,1021.96630859375,8.114751815795898,1.2673382759094238,0.38999998569488525,0.0,0.0,0.0,0.0,0.0,1.401298464324817e-45
138,0.5,0.0,-0.017188701778650284,0.007113623898476362,0.40633389353752136,-0.018382053822278976,0.0030903664883226156,0.40632912516593933,0.010587538592517376,-0.02231595292687416,0.31979134678840637,0.0,0.0,0.0,0.0,0.0,0.0,0.0,0.0,0.0,0.9871554970741272,-0.011858015321195126,0.003449460258707404,0.1592607945203781,0.0,0.09325631707906723,0.0,1021.96337890625,8.11708927154541,1.2673240900039673,0.38999998569488525,0.0,0.0,0.0,0.0,0.0,1.401298464324817e-45
138,0.5,0.0,0.021126337349414825,0.014336232095956802,0.3991813361644745,0.021626919507980347,-0.0028606995474547148,0.3993985056877136,0.007341782562434673,-0.02464108169078827,0.3192664086818695,0.0,0.0,0.0,0.0,0.0,0.0,0.0,0.0,0.0,0.9871929883956909,-0.012746922671794891,0.0016655949875712395,0.15898695588111877,0.0,0.0,0.0,1021.96630859375,8.115921020507812,1.267332911491394,0.38999998569488525,0.0,0.0,0.0,0.0,0.0,1.401298464324817e-45
138,0.5,0.0,-0.09643272310495377,-0.011970161460340023,0.42943188548088074,-0.10035470873117447,0.008169054053723812,0.42861804366111755,0.011746533215045929,-0.025035666301846504,0.31920522451400757,0.0,0.0,0.0,0.0,0.0,0.0,0.0,0.0,0.0,0.9871805310249329,-0.013291492126882076,0.0038088420405983925,0.15898264944553375,0.0,0.0,0.0,1021.9575805664062,8.11708927154541,1.2673168182373047,0.38999998569488525,0.0,0.0,0.0,0.0,0.0,1.401298464324817e-45
138,0.5,0.0,0.05945536866784096,0.013960280455648899,0.38481709361076355,0.05689917132258415,-0.01471939031034708,0.38517192006111145,0.01021154597401619,-0.02416345290839672,0.3193075656890869,0.0,0.0,0.0,0.0,0.0,0.0,0.0,0.0,0.0,0.987183690071106,-0.012739219702780247,0.003119839821010828,0.1590230017900467,0.0,0.0,0.0,1021.9517822265625,8.118257522583008,1.2673044204711914,0.38999998569488525,0.0,0.0,0.0,0.0,0.0,1.401298464324817e-45
138,0.5,0.0,0.020044131204485893,-0.026774628087878227,0.3581037223339081,0.007209263741970062,-0.04147804155945778,0.3571869730949402,0.00953533872961998,-0.027297111228108406,0.31936243176460266,0.0,0.0,0.0,0.0,0.0,0.0,0.0,0.0,0.0,0.9871606826782227,-0.014232300221920013,0.002536509884521365,0.15905050933361053,0.0,-0.04711845517158508,0.0,1021.986572265625,8.1135835647583,1.2673685550689697,0.38999998569488525,0.0,0.0,0.0,0.0,0.0,1.401298464324817e-45
138,0.5,0.0,-0.025663096457719803,0.058074723929166794,0.4339999854564667,-0.010295656509697437,0.052892837673425674,0.4352934956550598,0.009947006590664387,-0.023737160488963127,0.32178598642349243,0.0,0.0,0.0,0.0,0.0,0.0,0.0,0.0,0.0,0.9869893789291382,-0.012511522509157658,0.0030076552648097277,0.16024407744407654,0.0,0.0,0.0,1021.95751953125,8.12059497833252,1.2673009634017944,0.38999998569488525,0.0,0.0,0.0,0.0,0.0,1.401298464324817e-45
138,0.5,0.0,-0.009467605501413345,-0.023426352068781853,0.4719867408275604,-0.021561063826084137,-0.030236639082431793,0.4711977243423462,0.010996069759130478,-0.023311583325266838,0.320838987827301,0.0,0.0,0.0,0.0,0.0,0.0,0.0,0.0,0.0,0.9870643019676208,-0.012383810244500637,0.003565338207408786,0.15978169441223145,0.0,-0.37203970551490784,0.0,1022.0066528320312,8.122932434082031,1.2673513889312744,0.38999998569488525,0.0,0.0,0.0,0.0,0.0,1.401298464324817e-45
138,0.5,0.0,-0.04394375532865524,-0.06768173724412918,0.38112637400627136,-0.0684114471077919,-0.060092683881521225,0.37878161668777466,0.014276360161602497,-0.025396378710865974,0.31948578357696533,0.0,0.0,0.0,0.0,0.0,0.0,0.0,0.0,0.0,0.9871451258659363,-0.01367114670574665,0.005026982165873051,0.1591363549232483,0.0,0.0,0.0,1021.96337890625,8.115921020507812,1.2673293352127075,0.38999998569488525,0.0,0.0,0.0,0.0,0.0,1.401298464324817e-45
138,0.5,0.0,0.047427818179130554,0.011750186793506145,0.434845894575119,0.04418746754527092,-0.013840917497873306,0.43512213230133057,0.010379583574831486,-0.022786296904087067,0.32324114441871643,0.0,0.0,0.0,0.0,0.0,0.0,0.0,0.0,0.0,0.9868770241737366,-0.012079307809472084,0.003288532607257366,0.1609629988670349,0.0,0.02257823385298252,0.0,1021.9720458984375,8.118257522583008,1.2673295736312866,0.38999998569488525,0.0,0.0,0.0,0.0,0.0,1.401298464324817e-45
138,0.5,0.0,0.012466195039451122,0.07675857096910477,0.4618692100048065,0.03286058455705643,0.05831010639667511,0.4635591506958008,0.0070227705873548985,-0.022823181003332138,0.32183289527893066,0.0,0.0,0.0,0.0,0.0,0.0,0.0,0.0,0.0,0.9870001673698425,-0.01182637270539999,0.0016374621773138642,0.16025039553642273,0.0,0.0,0.0,1021.9749145507812,8.119426727294922,1.2673277854919434,0.38999998569488525,0.0,0.0,0.0,0.0,0.0,1.401298464324817e-45
138,0.5,0.0,0.02094617858529091,0.004289044067263603,0.3642387092113495,0.01865522377192974,-0.01257252972573042,0.3641687333583832,0.007038232870399952,-0.027316177263855934,0.32488760352134705,0.0,0.0,0.0,0.0,0.0,0.0,0.0,0.0,0.0,0.9867253303527832,-0.014046821743249893,0.0012636330211535096,0.1617610603570938,0.0,0.14037677645683289,0.0,1021.9488525390625,8.12059497833252,1.2672902345657349,0.38999998569488525,0.0,0.0,0.0,0.0,0.0,1.401298464324817e-45
138,0.5,0.0,-0.021669821813702583,0.05939934402704239,0.38332268595695496,-0.004169875755906105,0.054320670664310455,0.38466036319732666,0.00690645445138216,-0.02314899116754532,0.32572999596595764,0.0,0.0,0.0,0.0,0.0,0.0,0.0,0.0,0.0,0.9866843819618225,-0.01198084931820631,0.0015306114219129086,0.16217292845249176,0.0,0.0,0.0,1021.9662475585938,8.118257522583008,1.267322301864624,0.38999998569488525,0.0,0.0,0.0,0.0,0.0,1.401298464324817e-45
138,0.5,0.0,0.018397701904177666,0.03643740713596344,0.4200544059276581,0.025505177676677704,0.01860745996236801,0.42084723711013794,0.008471199311316013,-0.023900987580418587,0.32483890652656555,0.0,0.0,0.0,0.0,0.0,0.0,0.0,0.0,0.0,0.986747682094574,-0.01247765589505434,0.002247160067781806,0.16174262762069702,0.0,-0.18651317059993744,0.0,1021.9806518554688,8.121763229370117,1.267324447631836,0.38999998569488525,0.0,0.0,0.0,0.0,0.0,1.401298464324817e-45
138,0.5,0.0,0.026621202006936073,0.05467775836586952,0.36203286051750183,0.03949018195271492,0.03497295081615448,0.36329251527786255,0.008433227427303791,-0.02337275817990303,0.3217364251613617,0.0,0.0,0.0,0.0,0.0,0.0,0.0,0.0,0.0,0.9870006442070007,-0.01221043337136507,0.002290088916197419,0.16021090745925903,0.0,0.0,0.0,1021.9806518554688,8.12059497833252,1.2673296928405762,0.38999998569488525,0.0,0.0,0.0,0.0,0.0,1.401298464324817e-45
138,0.5,0.0,-0.011742858216166496,0.03391993045806885,0.42003437876701355,-0.005669714417308569,0.027025897055864334,0.4206567108631134,0.01261940784752369,-0.021094806492328644,0.32299110293388367,0.0,0.0,0.0,0.0,0.0,0.0,0.0,0.0,0.0,0.9868988394737244,-0.011424225755035877,0.00453134486451745,0.16084741055965424,0.0,0.11583717167377472,0.0,1021.9720458984375,8.119426727294922,1.2673242092132568,0.38999998569488525,0.0,0.0,0.0,0.0,0.0,1.401298464324817e-45
138,0.5,0.0,0.0038768169470131397,0.01250489056110382,0.40628620982170105,0.003898410825058818,0.0010536613408476114,0.40647387504577637,0.009197134524583817,-0.023574460297822952,0.3220462501049042,0.0,0.0,0.0,0.0,0.0,0.0,0.0,0.0,0.0,0.9869722127914429,-0.012371539138257504,0.0026490117888897657,0.16036821901798248,0.0,0.0,0.0,1021.974853515625,8.124100685119629,1.2673066854476929,0.38999998569488525,0.0,0.0,0.0,0.0,0.0,1.401298464324817e-45
138,0.5,0.0,0.03124477155506611,0.05222941190004349,0.39120861887931824,0.04236634820699692,0.029945269227027893,0.3924975097179413,0.00946028996258974,-0.025059707462787628,0.3195318579673767,0.0,0.0,0.0,0.0,0.0,0.0,0.0,0.0,0.0,0.9871627688407898,-0.01312221772968769,0.0026762818451970816,0.1591307669878006,0.0,-0.09325661510229111,0.0,1021.9575805664062,8.119426727294922,1.2673063278198242,0.38999998569488525,0.0,0.0,0.0,0.0,0.0,1.401298464324817e-45
138,0.5,0.0,0.056783292442560196,0.029639001935720444,0.4635410010814667,0.058721452951431274,-0.0011296342127025127,0.46424147486686707,0.009664423763751984,-0.024818455800414085,0.3181159198284149,0.0,0.0,0.0,0.0,0.0,0.0,0.0,0.0,0.0,0.987276017665863,-0.013017385266721249,0.002805453957989812,0.15843266248703003,0.0,0.0,0.0,1021.9806518554688,8.122932434082031,1.2673192024230957,0.38999998569488525,0.0,0.0,0.0,0.0,0.0,1.401298464324817e-45
138,0.5,0.0,-0.0247623510658741,-0.03567379340529442,0.3498525321483612,-0.037688203155994415,-0.03414257615804672,0.3488474190235138,0.008615411818027496,-0.02291194349527359,0.31803107261657715,0.0,0.0,0.0,0.0,0.0,0.0,0.0,0.0,0.0,0.9872980117797852,-0.0119931073859334,0.0024391368497163057,0.15838247537612915,0.0,0.11583668738603592,0.0,1021.9489135742188,8.119426727294922,1.2672955989837646,0.38999998569488525,0.0,0.0,0.0,0.0,0.0,1.401298464324817e-45
138,0.5,0.0,-0.014840700663626194,0.055152248591184616,0.37668320536613464,-0.0002454780915286392,0.047720178961753845,0.37798503041267395,0.00877384003251791,-0.024675332009792328,0.31645506620407104,0.0,0.0,0.0,0.0,0.0,0.0,0.0,0.0,0.0,0.9874110221862793,-0.012874256819486618,0.0023878454230725765,0.15760745108127594,0.0,0.0,0.0,1021.9402465820312,8.11708927154541,1.2672953605651855,0.38999998569488525,0.0,0.0,0.0,0.0,0.0,1.401298464324817e-45
138,0.5,0.0,0.010457232594490051,0.03077915497124195,0.3196105659008026,0.0171003807336092,0.018342742696404457,0.3202767074108124,0.007612662855535746,-0.023873774334788322,0.3171370327472687,0.0,0.0,0.0,0.0,0.0,0.0,0.0,0.0,0.0,0.9873659014701843,-0.012387717142701149,0.0018734890036284924,0.1579367220401764,0.0,-0.13939377665519714,0.0,1021.971923828125,8.125268936157227,1.2672977447509766,0.38999998569488525,0.0,0.0,0.0,0.0,0.0,1.401298464324817e-45
138,0.5,0.0,0.0504862479865551,-0.00450063357129693,0.4494342505931854,0.04289588704705238,-0.030283812433481216,0.4492213726043701,0.008047854527831078,-0.022572645917534828,0.3196464776992798,0.0,0.0,0.0,0.0,0.0,0.0,0.0,0.0,0.0,0.9871733784675598,-0.011782455258071423,0.002176308771595359,0.15917648375034332,0.0,0.0,0.0,1021.9459228515625,8.125268936157227,1.2672655582427979,0.38999998569488525,0.0,0.0,0.0,0.0,0.0,1.401298464324817e-45
138,0.5,0.0,-0.008082745596766472,0.024966180324554443,0.3275546729564667,-0.002819189103320241,0.017713604494929314,0.32811179757118225,0.009244205430150032,-0.026010314002633095,0.32105422019958496,0.0,0.0,0.0,0.0,0.0,0.0,0.0,0.0,0.0,0.9870358109474182,-0.01357613317668438,0.002483655232936144,0.1598820686340332,0.0,-0.14037775993347168,0.0,1021.9633178710938,8.121763229370117,1.2673028707504272,0.38999998569488525,0.0,0.0,0.0,0.0,0.0,1.401298464324817e-45
138,0.5,0.0,0.05001895874738693,0.08328244090080261,0.4050130546092987,0.0702478289604187,0.05241420120000839,0.40717148780822754,0.008642042055726051,-0.02662196196615696,0.3211638033390045,0.0,0.0,0.0,0.0,0.0,0.0,0.0,0.0,0.0,0.9870245456695557,-0.013830002397298813,0.002136817667633295,0.15993312001228333,0.0,0.0,0.0,1021.9921264648438,8.12643814086914,1.267317533493042,0.38999998569488525,0.0,0.0,0.0,0.0,0.0,1.401298464324817e-45
138,0.5,0.0,0.0007458529435098171,-0.010274206288158894,0.392579048871994,-0.006284411530941725,-0.01928948238492012,0.3921867609024048,0.009623496793210506,-0.023696348071098328,0.31826719641685486,0.0,0.0,0.0,0.0,0.0,0.0,0.0,0.0,0.0,0.9872713685035706,-0.012460446916520596,0.0028731964994221926,0.15850552916526794,0.0,0.302359938621521,0.0,1021.9430541992188,8.122932434082031,1.2672724723815918,0.38999998569488525,0.0,0.0,0.0,0.0,0.0,1.401298464324817e-45
138,0.5,0.0,0.010601854883134365,0.00515522388741374,0.3566865622997284,0.008492340333759785,-0.007539914455264807,0.3566977381706238,0.00893313530832529,-0.02563026361167431,0.3161223530769348,0.0,0.0,0.0,0.0,0.0,0.0,0.0,0.0,0.0,0.9874304533004761,-0.013357858173549175,0.0023934615310281515,0.1574452519416809,0.0,0.0,0.0,1021.986328125,8.127606391906738,1.2673051357269287,0.38999998569488525,0.0,0.0,0.0,0.0,0.0,1.401298464324817e-45
138,0.5,0.0,-0.026018692180514336,-0.003988319542258978,0.42114540934562683,-0.029917743057012558,-0.005571472458541393,0.42086514830589294,0.009409161284565926,-0.02363104186952114,0.31907209753990173,0.0,0.0,0.0,0.0,0.0,0.0,0.0,0.0,0.0,0.9872086048126221,-0.01241234876215458,0.002767570549622178,0.15890157222747803,0.0,-0.2090943157672882,0.0,1021.9834594726562,8.127606391906738,1.2673015594482422,0.38999998569488525,0.0,0.0,0.0,0.0,0.0,1.401298464324817e-45
138,0.5,0.0,0.003129388438537717,-0.026630811393260956,0.41493698954582214,-0.007834730669856071,-0.03714824840426445,0.4140622913837433,0.005798853933811188,-0.026271726936101913,0.3208409249782562,0.0,0.0,0.0,0.0,0.0,0.0,0.0,0.0,0.0,0.9870609045028687,-0.013429819606244564,0.0007638020324520767,0.15975579619407654,0.0,0.0,0.0,1021.9631958007812,8.127606391906738,1.267276406288147,0.38999998569488525,0.0,0.0,0.0,0.0,0.0,1.401298464324817e-45
138,0.5,0.0,0.02293277718126774,0.0678660199046135,0.3268270194530487,0.04024822264909744,0.04796748235821724,0.3286716341972351,0.008510660380125046,-0.028368163853883743,0.3185083568096161,0.0,0.0,0.0,0.0,0.0,0.0,0.0,0.0,0.0,0.9872241020202637,-0.014678693376481533,0.0019518299959599972,0.15862345695495605,0.0,-0.32590633630752563,0.0,1022.006591796875,8.127606391906738,1.267330288887024,0.38999998569488525,0.0,0.0,0.0,0.0,0.0,1.401298464324817e-45
138,0.5,0.0,-0.052366964519023895,-0.0382307693362236,0.43036362528800964,-0.06636735796928406,-0.03140847384929657,0.4289785623550415,0.010818714275956154,-0.026859356090426445,0.3190361559391022,0.0,0.0,0.0,0.0,0.0,0.0,0.0,0.0,0.0,0.987185001373291,-0.01411768514662981,0.0032070945017039776,0.15889686346054077,0.0,0.0,0.0,1021.9430541992188,8.122932434082031,1.2672724723815918,0.38999998569488525,0.0,0.0,0.0,0.0,0.0,1.401298464324817e-45
138,0.5,0.0,0.031118549406528473,0.053182296454906464,0.4483585059642792,0.04363884776830673,0.029746834188699722,0.4494771361351013,0.005923993419855833,-0.024305274710059166,0.3206852078437805,0.0,0.0,0.0,0.0,0.0,0.0,0.0,0.0,0.0,0.9870858788490295,-0.012469224631786346,0.0009836105164140463,0.1596788614988327,0.0,-0.09325893968343735,0.0,1021.9718627929688,8.128774642944336,1.2672818899154663,0.38999998569488525,0.0,0.0,0.0,0.0,0.0,1.401298464324817e-45
138,0.5,0.0,-0.002190719824284315,0.014771728776395321,0.4001712501049042,-0.0008833676693029702,0.003409041790291667,0.40043118596076965,0.008708680048584938,-0.028216123580932617,0.3223448097705841,0.0,0.0,0.0,0.0,0.0,0.0,0.0,0.0,0.0,0.9869185090065002,-0.014623265713453293,0.002033589407801628,0.16051805019378662,0.0,0.0,0.0,1021.9371948242188,8.12643814086914,1.2672494649887085,0.38999998569488525,0.0,0.0,0.0,0.0,0.0,1.401298464324817e-45
138,0.5,0.0,-0.027013957500457764,0.037217579782009125,0.36284253001213074,-0.017982129007577896,0.03534749522805214,0.3635859191417694,0.011361661367118359,-0.0234117079526186,0.32169875502586365,0.0,0.0,0.0,0.0,0.0,0.0,0.0,0.0,0.0,0.9869935512542725,-0.012464014813303947,0.0037324174772948027,0.16020813584327698,0.0,-0.06970032304525375,0.0,1021.9747314453125,8.131112098693848,1.2672749757766724,0.38999998569488525,0.0,0.0,0.0,0.0,0.0,1.401298464324817e-45
138,0.5,0.0,4.851310222875327e-05,0.034613851457834244,0.4417876899242401,0.0061447760090231895,0.02241581305861473,0.44252809882164,0.0108931390568614,-0.023557189851999283,0.32071453332901,0.0,0.0,0.0,0.0,0.0,0.0,0.0,0.0,0.0,0.9870730042457581,-0.012496589682996273,0.0034956936724483967,0.15972013771533966,0.0,0.0,0.0,1021.9631958007812,8.128774642944336,1.2672711610794067,0.38999998569488525,0.0,0.0,0.0,0.0,0.0,1.401298464324817e-45
138,0.5,0.0,0.016831014305353165,0.02154916152358055,0.384731262922287,0.018637601286172867,0.0058896299451589584,0.385203093290329,0.010702746920287609,-0.024068959057331085,0.3200952708721161,0.0,0.0,0.0,0.0,0.0,0.0,0.0,0.0,0.0,0.9871199727058411,-0.012732932344079018,0.003364797681570053,0.1594143658876419,0.0,0.07019106298685074,0.0,1021.9573364257812,8.132280349731445,1.2672481536865234,0.38999998569488525,0.0,0.0,0.0,0.0,0.0,1.401298464324817e-45
138,0.5,0.0,-0.01463304366916418,-0.04421891272068024,0.4449577033519745,-0.03196152672171593,-0.04971935972571373,0.4434637427330017,0.009200386703014374,-0.027921948581933975,0.3218531310558319,0.0,0.0,0.0,0.0,0.0,0.0,0.0,0.0,0.0,0.9869584441184998,-0.014516971074044704,0.002303413115441799,0.1602783203125,0.0,0.0,0.0,1021.9833984375,8.131112098693848,1.267285704612732,0.38999998569488525,0.0,0.0,0.0,0.0,0.0,1.401298464324817e-45
138,0.5,0.0,-0.007952861487865448,0.02722178027033806,0.45592400431632996,-0.0022339136339724064,0.017809884622693062,0.45644891262054443,0.00710421334952116,-0.023085782304406166,0.31968772411346436,0.0,0.0,0.0,0.0,0.0,0.0,0.0,0.0,0.0,0.9871698617935181,-0.011960705742239952,0.0016694435616955161,0.15919232368469238,0.0,-0.16296055912971497,0.0,1021.9949951171875,8.131112098693848,1.2673001289367676,0.38999998569488525,0.0,0.0,0.0,0.0,0.0,1.401298464324817e-45
138,0.5,0.0,0.03702414408326149,-0.012760295532643795,0.3285054862499237,0.028451254591345787,-0.03235538303852081,0.32801124453544617,0.00803887564688921,-0.026028377935290337,0.3215714991092682,0.0,0.0,0.0,0.0,0.0,0.0,0.0,0.0,0.0,0.9869979619979858,-0.013489245437085629,0.0018838553223758936,0.16013000905513763,0.0,0.0,0.0,1021.9920043945312,8.134617805480957,1.2672805786132812,0.38999998569488525,0.0,0.0,0.0,0.0,0.0,1.401298464324817e-45
138,0.5,0.0,0.05606960132718086,0.014143389649689198,0.421596497297287,0.05439567565917969,-0.015962421894073486,0.42174744606018066,0.007756026461720467,-0.02770344540476799,0.3210708200931549,0.0,0.0,0.0,0.0,0.0,0.0,0.0,0.0,0.0,0.9870272278785706,-0.014292849227786064,0.0016137307975441217,0.15988260507583618,0.0,-0.023560626432299614,0.0,1021.963134765625,8.132280349731445,1.2672553062438965,0.38999998569488525,0.0,0.0,0.0,0.0,0.0,1.401298464324817e-45
138,0.5,0.0,0.03719167038798332,-0.0011488331947475672,0.32068631052970886,0.032687343657016754,-0.020829705521464348,0.3204999566078186,0.007005073130130768,-0.025005396455526352,0.3205762207508087,0.0,0.0,0.0,0.0,0.0,0.0,0.0,0.0,0.0,0.9870871901512146,-0.01290095504373312,0.0014619841240346432,0.15963175892829895,0.0,0.0,0.0,1021.9486694335938,8.132280349731445,1.2672374248504639,0.38999998569488525,0.0,0.0,0.0,0.0,0.0,1.401298464324817e-45
138,0.5,0.0,0.01624183915555477,0.05434776097536087,0.39116284251213074,0.028854206204414368,0.03662232682108879,0.39249157905578613,0.009546561166644096,-0.02500849962234497,0.32165396213531494,0.0,0.0,0.0,0.0,0.0,0.0,0.0,0.0,0.0,0.9869933724403381,-0.013106683269143105,0.002709034364670515,0.1601785123348236,0.0,-0.139398992061615,0.0,1021.9400634765625,8.12994384765625,1.2672371864318848,0.38999998569488525,0.0,0.0,0.0,0.0,0.0,1.401298464324817e-45
138,0.5,0.0,0.02542281337082386,0.013887209817767143,0.4560107886791229,0.025958850979804993,-0.004982822109013796,0.4561612010002136,0.00558453006669879,-0.022223614156246185,0.3210489749908447,0.0,0.0,0.0,0.0,0.0,0.0,0.0,0.0,0.0,0.9870699644088745,-0.011414916254580021,0.000980187556706369,0.15985548496246338,0.0,0.0,0.0,1021.9342651367188,8.128774642944336,1.267235279083252,0.38999998569488525,0.0,0.0,0.0,0.0,0.0,1.401298464324817e-45
138,0.5,0.0,0.003999966196715832,0.06075900048017502,0.39752766489982605,0.01953447237610817,0.04773855581879616,0.3988393247127533,0.008594557642936707,-0.02174331061542034,0.3207511603832245,0.0,0.0,0.0,0.0,0.0,0.0,0.0,0.0,0.0,0.9870886206626892,-0.011417980305850506,0.002505859127268195,0.15972356498241425,0.0,0.0004908490227535367,0.0,1021.9833374023438,8.134617805480957,1.2672698497772217,0.38999998569488525,0.0,0.0,0.0,0.0,0.0,1.401298464324817e-45
138,0.5,0.0,0.031099684536457062,0.0006403214647434652,0.3788003623485565,0.026497801765799522,-0.019457438960671425,0.37864798307418823,0.008572590537369251,-0.027346480637788773,0.3173677325248718,0.0,0.0,0.0,0.0,0.0,0.0,0.0,0.0,0.0,0.9873215556144714,-0.01417810469865799,0.002071518450975418,0.15805977582931519,0.0,0.0,0.0,1021.9776000976562,8.13344955444336,1.2672679424285889,0.38999998569488525,0.0,0.0,0.0,0.0,0.0,1.401298464324817e-45
138,0.5,0.0,-0.04050939157605171,0.09446212649345398,0.3902110755443573,-0.01337434072047472,0.09292861074209213,0.39244315028190613,0.01109907403588295,-0.02416088990867138,0.31701403856277466,0.0,0.0,0.0,0.0,0.0,0.0,0.0,0.0,0.0,0.9873623251914978,-0.012804381549358368,0.0035728176590055227,0.1578957438468933,0.0,-0.16296124458312988,0.0,1021.9776000976562,8.13344955444336,1.2672679424285889,0.38999998569488525,0.0,0.0,0.0,0.0,0.0,1.401298464324817e-45
138,0.5,0.0,-0.060088030993938446,0.06355006992816925,0.3619708716869354,-0.04013200104236603,0.07047215849161148,0.3634459376335144,0.00836577545851469,-0.024066101759672165,0.3192613422870636,0.0,0.0,0.0,0.0,0.0,0.0,0.0,0.0,0.0,0.9871939420700073,-0.012544462457299232,0.0022167861461639404,0.15898974239826202,0.0,0.0,0.0,1021.9717407226562,8.139291763305664,1.267234444618225,0.38999998569488525,0.0,0.0,0.0,0.0,0.0,1.401298464324817e-45
138,0.5,0.0,0.02662588655948639,0.06629832834005356,0.3832034766674042,0.043006446212530136,0.04574643075466156,0.38471367955207825,0.008059149608016014,-0.023006562143564224,0.31939697265625,0.0,0.0,0.0,0.0,0.0,0.0,0.0,0.0,0.0,0.9871906638145447,-0.011997261084616184,0.0021488454658538103,0.15905386209487915,0.0,-0.11682283878326416,0.0,1021.9718017578125,8.13344955444336,1.2672607898712158,0.38999998569488525,0.0,0.0,0.0,0.0,0.0,1.401298464324817e-45
138,0.5,0.0,-0.022350935265421867,-0.02741662785410881,0.4152316749095917,-0.03358253836631775,-0.029903139919042587,0.41429924964904785,0.009034802205860615,-0.026279179379343987,0.3195711672306061,0.0,0.0,0.0,0.0,0.0,0.0,0.0,0.0,0.0,0.9871528148651123,-0.013690341264009476,0.002368967980146408,0.1591491550207138,0.0,0.0,0.0,1021.957275390625,8.138123512268066,1.2672216892242432,0.38999998569488525,0.0,0.0,0.0,0.0,0.0,1.401298464324817e-45
138,0.5,0.0,0.008121393620967865,0.047983214259147644,0.34078022837638855,0.02009636163711548,0.03477254882454872,0.341884046792984,0.00791869591921568,-0.02408565580844879,0.31983092427253723,0.0,0.0,0.0,0.0,0.0,0.0,0.0,0.0,0.0,0.9871500134468079,-0.012519164010882378,0.0019909830298274755,0.15926840901374817,0.0,-0.1629619151353836,0.0,1021.9804077148438,8.138123512268066,1.267250418663025,0.38999998569488525,0.0,0.0,0.0,0.0,0.0,1.401298464324817e-45
138,0.5,0.0,0.01239108107984066,-0.0340600349009037,0.4503621757030487,-0.0037370454519987106,-0.04630769044160843,0.4494197964668274,0.01061697956174612,-0.022402845323085785,0.3200962245464325,0.0,0.0,0.0,0.0,0.0,0.0,0.0,0.0,0.0,0.9871304035186768,-0.011903771199285984,0.003455259371548891,0.15941153466701508,0.0,0.0,0.0,1021.9833374023438,8.135786056518555,1.2672646045684814,0.38999998569488525,0.0,0.0,0.0,0.0,0.0,1.401298464324817e-45
138,0.5,0.0,0.01029167603701353,0.01803417131304741,0.3707427680492401,0.012468547560274601,0.004257709253579378,0.371086984872818,0.007872780784964561,-0.02610204741358757,0.3160983622074127,0.0,0.0,0.0,0.0,0.0,0.0,0.0,0.0,0.0,0.9874324202537537,-0.01350734569132328,0.0018329581944271922,0.15742748975753784,0.0,-0.02356141060590744,0.0,1021.989013671875,8.141629219055176,1.2672452926635742,0.38999998569488525,0.0,0.0,0.0,0.0,0.0,1.401298464324817e-45
138,0.5,0.0,0.021767202764749527,-0.0378926619887352,0.4012746512889862,0.005557133816182613,-0.053497932851314545,0.40004441142082214,0.008633309043943882,-0.02680213935673237,0.3134703040122986,0.0,0.0,0.0,0.0,0.0,0.0,0.0,0.0,0.0,0.9876313805580139,-0.013909975998103619,0.0021716230548918247,0.15613526105880737,0.0,0.0,0.0,1021.974609375,8.139291763305664,1.267237901687622,0.38999998569488525,0.0,0.0,0.0,0.0,0.0,1.401298464324817e-45
138,0.5,0.0,0.015271689742803574,0.01930774748325348,0.4136810004711151,0.017919085919857025,0.0028879607561975718,0.41401204466819763,0.006229789927601814,-0.02596179209649563,0.3146066963672638,0.0,0.0,0.0,0.0,0.0,0.0,0.0,0.0,0.0,0.9875552654266357,-0.013308079913258553,0.0010427302913740277,0.15668082237243652,0.0,-0.047122567892074585,0.0,1021.9890747070312,8.138123512268066,1.2672611474990845,0.38999998569488525,0.0,0.0,0.0,0.0,0.0,1.401298464324817e-45
138,0.5,0.0,0.017366785556077957,0.0034379709977656603,0.31311890482902527,0.015249837189912796,-0.009632827714085579,0.3130973279476166,0.007423629052937031,-0.02394912578165531,0.3161769211292267,0.0,0.0,0.0,0.0,0.0,0.0,0.0,0.0,0.0,0.9874414801597595,-0.012409142218530178,0.0017801723442971706,0.15746168792247772,0.0,0.0,0.0,1021.991943359375,8.140460968017578,1.267254114151001,0.38999998569488525,0.0,0.0,0.0,0.0,0.0,1.401298464324817e-45
138,0.5,0.0,-0.016689276322722435,0.03499952331185341,0.4057483375072479,-0.008800902403891087,0.02891281060874462,0.40647172927856445,0.009366439655423164,-0.023487213999032974,0.3156209886074066,0.0,0.0,0.0,0.0,0.0,0.0,0.0,0.0,0.0,0.9874823689460754,-0.012333186343312263,0.002779195085167885,0.15719743072986603,0.0,-0.06970234960317612,0.0,1021.9802856445312,8.143966674804688,1.2672239542007446,0.38999998569488525,0.0,0.0,0.0,0.0,0.0,1.401298464324817e-45
138,0.5,0.0,0.020238172262907028,0.0026671472005546093,0.357143372297287,0.017090724781155586,-0.013442753814160824,0.3570619821548462,0.008344929665327072,-0.02722751535475254,0.31414735317230225,0.0,0.0,0.0,0.0,0.0,0.0,0.0,0.0,0.0,0.9875763654708862,-0.014098209328949451,0.0019912333227694035,0.1564681977033615,0.0,0.0,0.0,1021.9515380859375,8.135786056518555,1.2672251462936401,0.38999998569488525,0.0,0.0,0.0,0.0,0.0,1.401298464324817e-45
138,0.5,0.0,0.018587352707982063,0.01174736674875021,0.44188496470451355,0.017303697764873505,-0.004489985294640064,0.44206690788269043,0.009099946357309818,-0.022274546325206757,0.3175090551376343,0.0,0.0,0.0,0.0,0.0,0.0,0.0,0.0,0.0,0.987341582775116,-0.011716090142726898,0.002731867367401719,0.15812648832798004,0.0,0.0,0.0,1021.965576171875,8.16032600402832,1.267132043838501,0.38999998569488525,0.0,0.0,0.0,0.0,0.0,1.401298464324817e-45
138,0.5,0.0,0.03573641553521156,-0.025985971093177795,0.329250305891037,0.022742344066500664,-0.044654883444309235,0.32839781045913696,0.009655503556132317,-0.02697250433266163,0.31512269377708435,0.0,0.0,0.0,0.0,0.0,0.0,0.0,0.0,0.0,0.9874975085258484,-0.014076040126383305,0.0026514821220189333,0.15695783495903015,0.0,0.06970485299825668,0.0,1021.9600219726562,8.148640632629395,1.267177700996399,0.38999998569488525,0.0,0.0,0.0,0.0,0.0,1.401298464324817e-45
138,0.5,0.0,-0.033086664974689484,0.08879117667675018,0.404175728559494,-0.007079633884131908,0.08549389988183975,0.406170517206192,0.008075733669102192,-0.022667068988084793,0.3164142966270447,0.0,0.0,0.0,0.0,0.0,0.0,0.0,0.0,0.0,0.987428605556488,-0.011827735230326653,0.0022016731090843678,0.1575811505317688,0.0,0.0,0.0,1021.9918823242188,8.145134925842285,1.2672330141067505,0.38999998569488525,0.0,0.0,0.0,0.0,0.0,1.401298464324817e-45
138,0.5,0.0,0.03281101584434509,0.04426582157611847,0.34091851115226746,0.042437318712472916,0.023576492443680763,0.3419105112552643,0.007267759647220373,-0.024408483877778053,0.3151777386665344,0.0,0.0,0.0,0.0,0.0,0.0,0.0,0.0,0.0,0.9875176548957825,-0.012622837908565998,0.0016733553493395448,0.1569678634405136,0.0,-0.023562096059322357,0.0,1021.9918212890625,8.146303176879883,1.2672276496887207,0.38999998569488525,0.0,0.0,0.0,0.0,0.0,1.401298464324817e-45
138,0.5,0.0,0.015266824513673782,0.04991917684674263,0.40602490305900574,0.027310937643051147,0.03160981088876724,0.40722665190696716,0.006455888506025076,-0.027429716661572456,0.3138679563999176,0.0,0.0,0.0,0.0,0.0,0.0,0.0,0.0,0.0,0.9876022934913635,-0.01405022107064724,0.0010445669759064913,0.15631820261478424,0.0,0.0,0.0,1021.9774169921875,8.142797470092773,1.2672256231307983,0.38999998569488525,0.0,0.0,0.0,0.0,0.0,1.401298464324817e-45
138,0.5,0.0,0.024886479601264,0.07961579412221909,0.45512673258781433,0.04475652053952217,0.05643191933631897,0.4570637047290802,0.007504659704864025,-0.025565247982740402,0.31272995471954346,0.0,0.0,0.0,0.0,0.0,0.0,0.0,0.0,0.0,0.9877008199691772,-0.01321048941463232,0.0017157107358798385,0.1557615101337433,0.0,-0.06970292329788208,0.0,1021.96875,8.143966674804688,1.2672096490859985,0.38999998569488525,0.0,0.0,0.0,0.0,0.0,1.401298464324817e-45
138,0.5,0.0,0.020797956734895706,-0.02167355827987194,0.37213417887687683,0.009976203553378582,-0.03708219900727272,0.37136146426200867,0.008351449854671955,-0.027012476697564125,0.31408339738845825,0.0,0.0,0.0,0.0,0.0,0.0,0.0,0.0,0.0,0.9875828623771667,-0.013992471620440483,0.0020117235835641623,0.15643645823001862,0.0,0.0,0.0,1021.9600830078125,8.145134925842285,1.2671935558319092,0.38999998569488525,0.0,0.0,0.0,0.0,0.0,1.401298464324817e-45
138,0.5,0.0,0.002849411452189088,0.024190189316868782,0.39182087779045105,0.00627061165869236,0.012670149095356464,0.3923196494579315,0.010172726586461067,-0.024028180167078972,0.3174116313457489,0.0,0.0,0.0,0.0,0.0,0.0,0.0,0.0,0.0,0.987335205078125,-0.012666412629187107,0.003123441943898797,0.15808670222759247,0.0,0.023070983588695526,0.0,1021.96875,8.145134925842285,1.2672044038772583,0.38999998569488525,0.0,0.0,0.0,0.0,0.0,1.401298464324817e-45
138,0.5,0.0,0.007753778249025345,0.024882974103093147,0.398926705121994,0.011184729635715485,0.011654119938611984,0.39944756031036377,0.00994142983108759,-0.023924296721816063,0.31829768419265747,0.0,0.0,0.0,0.0,0.0,0.0,0.0,0.0,0.0,0.9872663617134094,-0.012598195113241673,0.0030118857976049185,0.15852265059947968,0.0,0.0,0.0,1021.986083984375,8.145134925842285,1.2672258615493774,0.38999998569488525,0.0,0.0,0.0,0.0,0.0,1.401298464324817e-45
138,0.5,0.0,-0.029228033497929573,0.02884354069828987,0.3275127112865448,-0.02253056690096855,0.028386784717440605,0.3280788064002991,0.011630319058895111,-0.02490103244781494,0.3185800015926361,0.0,0.0,0.0,0.0,0.0,0.0,0.0,0.0,0.0,0.9872316718101501,-0.013214632868766785,0.003766310168430209,0.15867313742637634,0.0,-0.046141233295202255,0.0,1021.96875,8.143966674804688,1.2672096490859985,0.38999998569488525,0.0,0.0,0.0,0.0,0.0,1.401298464324817e-45
138,0.5,0.0,0.040604379028081894,0.021452631801366806,0.36384865641593933,0.04132645204663277,-0.002071915427222848,0.3643905520439148,0.010820602998137474,-0.026923036202788353,0.31674477458000183,0.0,0.0,0.0,0.0,0.0,0.0,0.0,0.0,0.0,0.9873659610748291,-0.01414558943361044,0.0032191758509725332,0.15776586532592773,0.0,0.0,0.0,1021.9715576171875,8.148640632629395,1.267192006111145,0.38999998569488525,0.0,0.0,0.0,0.0,0.0,1.401298464324817e-45
138,0.5,0.0,0.0008984394953586161,0.053338151425123215,0.3401889503002167,0.015113686211407185,0.042939506471157074,0.34132125973701477,0.006676472257822752,-0.0219860952347517,0.3151226341724396,0.0,0.0,0.0,0.0,0.0,0.0,0.0,0.0,0.0,0.9875380992889404,-0.011380326934158802,0.001571822096593678,0.15693546831607819,0.0,0.09277628362178802,0.0,1021.983154296875,8.146303176879883,1.2672169208526611,0.38999998569488525,0.0,0.0,0.0,0.0,0.0,1.401298464324817e-45
138,0.5,0.0,0.005374804604798555,0.0490088127553463,0.37593552470207214,0.016685355454683304,0.03765557333827019,0.37690800428390503,0.009770047850906849,-0.01924648880958557,0.31645286083221436,0.0,0.0,0.0,0.0,0.0,0.0,0.0,0.0,0.0,0.9874394536018372,-0.010272419080138206,0.0033075197134166956,0.1576036512851715,0.0,0.0,0.0,1021.9630126953125,8.139291763305664,1.267223596572876,0.38999998569488525,0.0,0.0,0.0,0.0,0.0,1.401298464324817e-45
138,0.5,0.0,-0.022220607846975327,0.03267550840973854,0.36969467997550964,-0.015070023015141487,0.03002689778804779,0.3702765703201294,0.010925858281552792,-0.021401014178991318,0.3142685890197754,0.0,0.0,0.0,0.0,0.0,0.0,0.0,0.0,0.0,0.9875954985618591,-0.011423109099268913,0.0037208679132163525,0.15653429925441742,0.0,-0.11584595590829849,0.0,1021.9946899414062,8.148640632629395,1.2672207355499268,0.38999998569488525,0.0,0.0,0.0,0.0,0.0,1.401298464324817e-45
138,0.5,0.0,0.05537997558712959,-0.02482844702899456,0.37224289774894714,0.042001742869615555,-0.050832752138376236,0.3713458776473999,0.007956519722938538,-0.02707432582974434,0.3149401545524597,0.0,0.0,0.0,0.0,0.0,0.0,0.0,0.0,0.0,0.987516462802887,-0.013992917723953724,0.0018058739369735122,0.15685704350471497,0.0,0.0,0.0,1021.9716186523438,8.145134925842285,1.2672078609466553,0.38999998569488525,0.0,0.0,0.0,0.0,0.0,1.401298464324817e-45
138,0.5,0.0,-0.03196455538272858,0.01847754418849945,0.38490769267082214,-0.028243649750947952,0.018105875700712204,0.3852132558822632,0.009580167941749096,-0.02458345890045166,0.31898215413093567,0.0,0.0,0.0,0.0,0.0,0.0,0.0,0.0,0.0,0.987209141254425,-0.01289591658860445,0.00277689122594893,0.1588594615459442,0.0,-0.2552509903907776,0.0,1021.99462890625,8.152146339416504,1.2672048807144165,0.38999998569488525,0.0,0.0,0.0,0.0,0.0,1.401298464324817e-45
138,0.5,0.0,0.06059008464217186,-0.03135310485959053,0.40070244669914246,0.04421952739357948,-0.058898843824863434,0.39973682165145874,0.008916323073208332,-0.02551678754389286,0.317067950963974,0.0,0.0,0.0,0.0,0.0,0.0,0.0,0.0,0.0,0.9873566627502441,-0.013301638886332512,0.0023878058418631554,0.15791185200214386,0.0,0.0,0.0,1021.9745483398438,8.142797470092773,1.2672220468521118,0.38999998569488525,0.0,0.0,0.0,0.0,0.0,1.401298464324817e-45
138,0.5,0.0,0.03798704594373703,-0.028698481619358063,0.44415852427482605,0.023625226691365242,-0.05100858211517334,0.44314801692962646,0.008279158733785152,-0.02705642394721508,0.3130291998386383,0.0,0.0,0.0,0.0,0.0,0.0,0.0,0.0,0.0,0.9876649975776672,-0.014007479883730412,0.001979972468689084,0.15591543912887573,0.0,-0.11682818830013275,0.0,1022.0033569335938,8.149808883666992,1.267226219177246,0.38999998569488525,0.0,0.0,0.0,0.0,0.0,1.401298464324817e-45
138,0.5,0.0,0.009322634898126125,0.07496366649866104,0.3474139869213104,0.029775699600577354,0.0596122220158577,0.3492286503314972,0.006707655265927315,-0.025156572461128235,0.31526458263397217,0.0,0.0,0.0,0.0,0.0,0.0,0.0,0.0,0.0,0.9875074028968811,-0.012948333285748959,0.001337519264779985,0.15700802206993103,0.0,0.0,0.0,1022.0033569335938,8.15097713470459,1.2672209739685059,0.38999998569488525,0.0,0.0,0.0,0.0,0.0,1.401298464324817e-45
138,0.5,0.0,0.02685234323143959,0.030133789405226707,0.46304795145988464,0.03135751187801361,0.009657134301960468,0.46364066004753113,0.007602490484714508,-0.022986305877566338,0.3155911862850189,0.0,0.0,0.0,0.0,0.0,0.0,0.0,0.0,0.0,0.987493097782135,-0.01194728258997202,0.0019477842142805457,0.15717259049415588,0.0,0.11633767187595367,0.0,1021.9686889648438,8.146303176879883,1.2671990394592285,0.38999998569488525,0.0,0.0,0.0,0.0,0.0,1.401298464324817e-45
138,0.5,0.0,0.02595321461558342,-0.0038466753903776407,0.3643912971019745,0.021120941266417503,-0.021530721336603165,0.3640846014022827,0.006556846667081118,-0.027134202420711517,0.3127366602420807,0.0,0.0,0.0,0.0,0.0,0.0,0.0,0.0,0.0,0.9876922965049744,-0.01391154620796442,0.0011253879638388753,0.1557600349187851,0.0,0.0,0.0,1021.983154296875,8.14747142791748,1.267211675643921,0.38999998569488525,0.0,0.0,0.0,0.0,0.0,1.401298464324817e-45
138,0.5,0.0,0.0008454969502054155,0.003319068346172571,0.3488883674144745,-0.001188034424558282,-0.005115806590765715,0.34886303544044495,0.00867756363004446,-0.022943979129195213,0.3175296187400818,0.0,0.0,0.0,0.0,0.0,0.0,0.0,0.0,0.0,0.9873374700546265,-0.012013223022222519,0.002470292616635561,0.1581353396177292,0.0,0.023071367293596268,0.0,1021.980224609375,8.15097713470459,1.2671922445297241,0.38999998569488525,0.0,0.0,0.0,0.0,0.0,1.401298464324817e-45
138,0.5,0.0,-0.0038674217648804188,0.047580357640981674,0.39102742075920105,0.007705965079367161,0.037170927971601486,0.39209413528442383,0.008852810598909855,-0.02359742857515812,0.3172420859336853,0.0,0.0,0.0,0.0,0.0,0.0,0.0,0.0,0.0,0.9873555302619934,-0.012349297292530537,0.002506917342543602,0.15799511969089508,0.0,0.0,0.0,1021.9484252929688,8.148640632629395,1.2671633958816528,0.38999998569488525,0.0,0.0,0.0,0.0,0.0,1.401298464324817e-45
138,0.5,0.0,-0.002226341050118208,-0.012233509682118893,0.4079141318798065,-0.010596281848847866,-0.02167259156703949,0.4073869287967682,0.011382868513464928,-0.026387348771095276,0.3192674517631531,0.0,0.0,0.0,0.0,0.0,0.0,0.0,0.0,0.0,0.9871680736541748,-0.013929897919297218,0.003521453123539686,0.15901373326778412,0.0,0.0004908795817755163,0.0,1021.977294921875,8.152146339416504,1.2671834230422974,0.38999998569488525,0.0,0.0,0.0,0.0,0.0,1.401298464324817e-45
138,0.5,0.0,0.02625691145658493,0.01424134150147438,0.413967102766037,0.02383970282971859,-0.0048658414743840694,0.4143263101577759,0.013434014283120632,-0.02443774789571762,0.31996574997901917,0.0,0.0,0.0,0.0,0.0,0.0,0.0,0.0,0.0,0.9871171116828918,-0.01313216332346201,0.0046843294985592365,0.15936622023582458,0.0,0.0,0.0,1021.9599609375,8.152146339416504,1.2671618461608887,0.38999998569488525,0.0,0.0,0.0,0.0,0.0,1.401298464324817e-45
138,0.5,0.0,0.03623461723327637,0.028764819726347923,0.37775513529777527,0.039942413568496704,0.006015390157699585,0.3784249722957611,0.009212684817612171,-0.02628195844590664,0.31881070137023926,0.0,0.0,0.0,0.0,0.0,0.0,0.0,0.0,0.0,0.9872126579284668,-0.013704921118915081,0.002461759140715003,0.15877488255500793,0.0,-0.16297003626823425,0.0,1021.9686279296875,8.153314590454102,1.267167329788208,0.38999998569488525,0.0,0.0,0.0,0.0,0.0,1.401298464324817e-45
138,0.5,0.0,-0.003223674139007926,-0.028530322015285492,0.4007425010204315,-0.015744337812066078,-0.03634633868932724,0.399809330701828,0.009390437975525856,-0.025620874017477036,0.3179737627506256,0.0,0.0,0.0,0.0,0.0,0.0,0.0,0.0,0.0,0.9872829914093018,-0.013391618616878986,0.002607587492093444,0.1583619862794876,0.0,0.0,0.0,1021.9425659179688,8.152146339416504,1.26714026927948,0.38999998569488525,0.0,0.0,0.0,0.0,0.0,1.401298464324817e-45
138,0.5,0.0,-0.015298773534595966,0.05289021506905556,0.4625186622142792,-0.0030483477748930454,0.04508228227496147,0.46358367800712585,0.010687329806387424,-0.021472344174981117,0.31599095463752747,0.0,0.0,0.0,0.0,0.0,0.0,0.0,0.0,0.0,0.987460732460022,-0.01144277025014162,0.003587644314393401,0.15738369524478912,0.0,0.2321934998035431,0.0,1021.9570922851562,8.15097713470459,1.267163634300232,0.38999998569488525,0.0,0.0,0.0,0.0,0.0,1.401298464324817e-45
138,0.5,0.0,-0.014972487464547157,0.0032911852467805147,0.398647278547287,-0.017182232812047005,-0.00010151811147807166,0.39856863021850586,0.009976822882890701,-0.01978936977684498,0.31632450222969055,0.0,0.0,0.0,0.0,0.0,0.0,0.0,0.0,0.0,0.9874461889266968,-0.010556518100202084,0.003367507364600897,0.1575421243906021,0.0,0.0,0.0,1021.9830932617188,8.149808883666992,1.2672010660171509,0.38999998569488525,0.0,0.0,0.0,0.0,0.0,1.401298464324817e-45
138,0.5,0.0,-0.004320248030126095,0.005503115244209766,0.3850516974925995,-0.0066225589253008366,-0.0023589087650179863,0.3850482106208801,0.011055506765842438,-0.023226214572787285,0.32060307264328003,0.0,0.0,0.0,0.0,0.0,0.0,0.0,0.0,0.0,0.9870836138725281,-0.012345999479293823,0.00360294827260077,0.15966545045375824,0.0,-0.16297341883182526,0.0,1021.9945678710938,8.156820297241211,1.267183780670166,0.38999998569488525,0.0,0.0,0.0,0.0,0.0,1.401298464324817e-45
138,0.5,0.0,0.0511728897690773,-0.008067216724157333,0.3358268439769745,0.042804863303899765,-0.0328022725880146,0.3354896605014801,0.009505079127848148,-0.026716560125350952,0.32160207629203796,0.0,0.0,0.0,0.0,0.0,0.0,0.0,0.0,0.0,0.986985981464386,-0.013946212828159332,0.0025521269999444485,0.16015489399433136,0.0,0.0,0.0,1021.9686279296875,8.149808883666992,1.2671831846237183,0.38999998569488525,0.0,0.0,0.0,0.0,0.0,1.401298464324817e-45
138,0.5,0.0,0.057901740074157715,0.010972114279866219,0.3857545554637909,0.05482225492596626,-0.01850145123898983,0.38591378927230835,0.009266121312975883,-0.027444347739219666,0.32181301712989807,0.0,0.0,0.0,0.0,0.0,0.0,0.0,0.0,0.0,0.9869649410247803,-0.01428650040179491,0.002374413423240185,0.16025839745998383,0.0,-0.21009953320026398,0.0,1021.9859008789062,8.1544828414917,1.267183542251587,0.38999998569488525,0.0,0.0,0.0,0.0,0.0,1.401298464324817e-45
138,0.5,0.0,0.002224802505224943,0.021983347833156586,0.35643669962882996,0.0054811472073197365,0.010853806510567665,0.3569110035896301,0.010092075914144516,-0.02604307234287262,0.3225659430027008,0.0,0.0,0.0,0.0,0.0,0.0,0.0,0.0,0.0,0.9869113564491272,-0.013662213459610939,0.0028891621623188257,0.16063322126865387,0.0,0.0,0.0,1021.9686279296875,8.15097713470459,1.267177939414978,0.38999998569488525,0.0,0.0,0.0,0.0,0.0,1.401298464324817e-45
138,0.5,0.0,-0.020054208114743233,0.01772763766348362,0.36296364665031433,-0.017343444749712944,0.015119119547307491,0.3632184565067291,0.010693632066249847,-0.02207811176776886,0.31985536217689514,0.0,0.0,0.0,0.0,0.0,0.0,0.0,0.0,0.0,0.9871513843536377,-0.011749176308512688,0.00352039048448205,0.15929248929023743,0.0,-0.27980101108551025,0.0,1021.977294921875,8.153314590454102,1.2671780586242676,0.38999998569488525,0.0,0.0,0.0,0.0,0.0,1.401298464324817e-45
138,0.5,0.0,0.03707141429185867,-0.05385308712720871,0.4587268531322479,0.014164900407195091,-0.07442870736122131,0.4571225643157959,0.008779319003224373,-0.025396881625056267,0.32089364528656006,0.0,0.0,0.0,0.0,0.0,0.0,0.0,0.0,0.0,0.9870540499687195,-0.01323606725782156,0.0023043209221214056,0.15979927778244019,0.0,0.0,0.0,1022.0032348632812,8.157988548278809,1.2671892642974854,0.38999998569488525,0.0,0.0,0.0,0.0,0.0,1.401298464324817e-45
138,0.5,0.0,0.01491844467818737,0.02672729827463627,0.3698529899120331,0.01969793252646923,0.012029705569148064,0.37039613723754883,0.007877996191382408,-0.023228773847222328,0.32212311029434204,0.0,0.0,0.0,0.0,0.0,0.0,0.0,0.0,0.0,0.9869722127914429,-0.012095317244529724,0.0020252703689038754,0.16039858758449554,0.0,0.21010299026966095,0.0,1021.971435546875,8.156820297241211,1.2671550512313843,0.38999998569488525,0.0,0.0,0.0,0.0,0.0,1.401298464324817e-45
138,0.5,0.0,0.029335426166653633,0.022190364077687263,0.35626503825187683,0.03184540197253227,0.002565134083852172,0.3567282557487488,0.008385582827031612,-0.025929203256964684,0.32065826654434204,0.0,0.0,0.0,0.0,0.0,0.0,0.0,0.0,0.0,0.987070620059967,-0.013467102311551571,0.0020690488163381815,0.15968133509159088,0.0,0.0,0.0,1021.974365234375,8.155652046203613,1.2671639919281006,0.38999998569488525,0.0,0.0,0.0,0.0,0.0,1.401298464324817e-45
138,0.5,0.0,-0.018219446763396263,0.02665955200791359,0.39234063029289246,-0.0130348214879632,0.0206928513944149,0.39290377497673035,0.010400482453405857,-0.02631504461169243,0.31849905848503113,0.0,0.0,0.0,0.0,0.0,0.0,0.0,0.0,0.0,0.9872331023216248,-0.013815002515912056,0.0030476050451397896,0.15862835943698883,0.0,0.30288222432136536,0.0,1021.974365234375,8.155652046203613,1.2671639919281006,0.38999998569488525,0.0,0.0,0.0,0.0,0.0,1.401298464324817e-45
138,0.5,0.0,-0.0075527881272137165,-0.02647152543067932,0.44416043162345886,-0.020045163109898567,-0.03457580506801605,0.4432108700275421,0.010417642071843147,-0.026535579934716225,0.3166051208972931,0.0,0.0,0.0,0.0,0.0,0.0,0.0,0.0,0.0,0.9873812198638916,-0.013922338373959064,0.00305176991969347,0.15769381821155548,0.0,0.0,0.0,1021.9973754882812,8.162663459777832,1.2671608924865723,0.38999998569488525,0.0,0.0,0.0,0.0,0.0,1.401298464324817e-45
138,0.5,0.0,0.018757028505206108,0.009905315935611725,0.36415669322013855,0.0168157946318388,-0.006116953678429127,0.364331990480423,0.011249925009906292,-0.026509813964366913,0.3180723488330841,0.0,0.0,0.0,0.0,0.0,0.0,0.0,0.0,0.0,0.9872624278068542,-0.013977721333503723,0.003454449586570263,0.15842320024967194,0.0,-0.1865387260913849,0.0,1021.9974365234375,8.157988548278809,1.2671819925308228,0.38999998569488525,0.0,0.0,0.0,0.0,0.0,1.401298464324817e-45
138,0.5,0.0,0.03856884688138962,0.05632039159536362,0.49117371439933777,0.04960055276751518,0.030166441574692726,0.49248045682907104,0.009465991519391537,-0.022881854325532913,0.3181963264942169,0.0,0.0,0.0,0.0,0.0,0.0,0.0,0.0,0.0,0.9872823357582092,-0.012045805342495441,0.0028604217804968357,0.15846851468086243,0.0,0.0,0.0,1021.9772338867188,8.1544828414917,1.2671728134155273,0.38999998569488525,0.0,0.0,0.0,0.0,0.0,1.401298464324817e-45
138,0.5,0.0,0.02393912710249424,-0.030029723420739174,0.450623482465744,0.009632323868572712,-0.04704055190086365,0.4496973156929016,0.008316326886415482,-0.024527885019779205,0.3171441853046417,0.0,0.0,0.0,0.0,0.0,0.0,0.0,0.0,0.0,0.9873591661453247,-0.012766181491315365,0.0021691827569156885,0.15794488787651062,0.0,0.16297873854637146,0.0,1021.9772338867188,8.155652046203613,1.2671674489974976,0.38999998569488525,0.0,0.0,0.0,0.0,0.0,1.401298464324817e-45
138,0.5,0.0,0.026659676805138588,-0.03298677131533623,0.4214191138744354,0.01203806884586811,-0.049273792654275894,0.42049649357795715,0.007095556706190109,-0.022832537069916725,0.31750577688217163,0.0,0.0,0.0,0.0,0.0,0.0,0.0,0.0,0.0,0.9873443841934204,-0.011833173222839832,0.0016982388915494084,0.1581149846315384,0.0,0.0,0.0,1021.974365234375,8.155652046203613,1.2671639919281006,0.38999998569488525,0.0,0.0,0.0,0.0,0.0,1.401298464324817e-45
138,0.5,0.0,0.03296063095331192,-0.0134976701810956,0.44435402750968933,0.02249295450747013,-0.035821303725242615,0.44376441836357117,0.01036329660564661,-0.028608964756131172,0.3174930810928345,0.0,0.0,0.0,0.0,0.0,0.0,0.0,0.0,0.0,0.9872963428497314,-0.014942928217351437,0.002854823600500822,0.15813490748405457,0.0,0.18605202436447144,0.0,1021.9772338867188,8.156820297241211,1.2671622037887573,0.38999998569488525,0.0,0.0,0.0,0.0,0.0,1.401298464324817e-45
138,0.5,0.0,0.015293997712433338,0.01130365114659071,0.35692211985588074,0.014392966404557228,-0.0035975193604826927,0.35711759328842163,0.01026915293186903,-0.026766985654830933,0.3176315128803253,0.0,0.0,0.0,0.0,0.0,0.0,0.0,0.0,0.0,0.9872990846633911,-0.014026399701833725,0.0029530166648328304,0.1581999510526657,0.0,0.0,0.0,1022.003173828125,8.16032600402832,1.2671786546707153,0.38999998569488525,0.0,0.0,0.0,0.0,0.0,1.401298464324817e-45
138,0.5,0.0,-0.0051316856406629086,0.004248225595802069,0.29170700907707214,-0.006134456023573875,-0.0013728068443015218,0.291713148355484,0.008905552327632904,-0.024059949442744255,0.3196427524089813,0.0,0.0,0.0,0.0,0.0,0.0,0.0,0.0,0.0,0.9871622323989868,-0.012584784999489784,0.0024813127238303423,0.15918105840682983,0.0,-0.046143919229507446,0.0,1021.9916381835938,8.159157752990723,1.2671695947647095,0.38999998569488525,0.0,0.0,0.0,0.0,0.0,1.401298464324817e-45
138,0.5,0.0,0.02276810072362423,0.0731050968170166,0.3474073112010956,0.041853662580251694,0.05367228761315346,0.3491705656051636,0.007941393181681633,-0.024549856781959534,0.3200899362564087,0.0,0.0,0.0,0.0,0.0,0.0,0.0,0.0,0.0,0.9871261715888977,-0.01275034062564373,0.0019635697826743126,0.15939681231975555,0.0,0.0,0.0,1021.9973754882812,8.162663459777832,1.2671608924865723,0.38999998569488525,0.0,0.0,0.0,0.0,0.0,1.401298464324817e-45
138,0.5,0.0,-0.036043260246515274,-0.011394189670681953,0.4866351783275604,-0.04382063448429108,-0.011237877421081066,0.4859963655471802,0.012388624250888824,-0.02451980672776699,0.3241965174674988,0.0,0.0,0.0,0.0,0.0,0.0,0.0,0.0,0.0,0.9867815971374512,-0.013098222203552723,0.004134113434702158,0.1614483892917633,0.0,0.16396258771419525,0.0,1021.9828491210938,8.164999961853027,1.2671324014663696,0.38999998569488525,0.0,0.0,0.0,0.0,0.0,1.401298464324817e-45
138,0.5,0.0,0.02777675725519657,0.08148358017206192,0.44032761454582214,0.0476311631500721,0.05849368870258331,0.44227367639541626,0.009998085908591747,-0.022842513397336006,0.32055187225341797,0.0,0.0,0.0,0.0,0.0,0.0,0.0,0.0,0.0,0.987093448638916,-0.012072190642356873,0.0031119934283196926,0.15963391959667206,0.0,0.0,0.0,1021.9771728515625,8.16032600402832,1.267146348953247,0.38999998569488525,0.0,0.0,0.0,0.0,0.0,1.401298464324817e-45
138,0.5,0.0,-0.00843849591910839,-0.013641880825161934,0.400722473859787,-0.017169630154967308,-0.02062143385410309,0.4001416862010956,0.012177955359220505,-0.025761470198631287,0.3189685046672821,0.0,0.0,0.0,0.0,0.0,0.0,0.0,0.0,0.0,0.9871929883956909,-0.01368353608995676,0.00396571634337306,0.15886974334716797,0.0,0.37211206555366516,0.0,1021.968505859375,8.159157752990723,1.2671408653259277,0.38999998569488525,0.0,0.0,0.0,0.0,0.0,1.401298464324817e-45
138,0.5,0.0,0.05134492740035057,0.04923033341765404,0.35534951090812683,0.06071106344461441,0.02169688045978546,0.3566153049468994,0.009867658838629723,-0.024950459599494934,0.31988492608070374,0.0,0.0,0.0,0.0,0.0,0.0,0.0,0.0,0.0,0.987133800983429,-0.013101189397275448,0.002883738838136196,0.15930718183517456,0.0,0.0,0.0,1021.98876953125,8.159157752990723,1.267166018486023,0.38999998569488525,0.0,0.0,0.0,0.0,0.0,1.401298464324817e-45
138,0.5,0.0,0.01809055730700493,-0.07130445539951324,0.43826863169670105,-0.008946450427174568,-0.08528120070695877,0.4360446333885193,0.008618303574621677,-0.02722196839749813,0.3187979757785797,0.0,0.0,0.0,0.0,0.0,0.0,0.0,0.0,0.0,0.9872090220451355,-0.014121748507022858,0.002093827584758401,0.15876595675945282,0.0,-0.1158512607216835,0.0,1021.9915771484375,8.16383171081543,1.267148494720459,0.38999998569488525,0.0,0.0,0.0,0.0,0.0,1.401298464324817e-45
138,0.5,0.0,-0.009961988776922226,-0.01027947198599577,0.3726482093334198,-0.01669931598007679,-0.017428018152713776,0.372138112783432,0.01075942162424326,-0.029021596536040306,0.32013580203056335,0.0,0.0,0.0,0.0,0.0,0.0,0.0,0.0,0.0,0.9870818853378296,-0.015181886963546276,0.002997692208737135,0.15944258868694305,0.0,0.0,0.0,1021.98876953125,8.159157752990723,1.267166018486023,0.38999998569488525,0.0,0.0,0.0,0.0,0.0,1.401298464324817e-45
138,0.5,0.0,0.034985627979040146,-0.01223708875477314,0.35000893473625183,0.026878630742430687,-0.03172394260764122,0.3494985103607178,0.00714498246088624,-0.026092728599905968,0.3191077709197998,0.0,0.0,0.0,0.0,0.0,0.0,0.0,0.0,0.0,0.9871967434883118,-0.013447698205709457,0.001454122713766992,0.1589086502790451,0.0,0.2096199244260788,0.0,1021.9771118164062,8.162663459777832,1.267135739326477,0.38999998569488525,0.0,0.0,0.0,0.0,0.0,1.401298464324817e-45
138,0.5,0.0,0.022145496681332588,-0.019898321479558945,0.39266106486320496,0.012835647910833359,-0.035354822874069214,0.39198464155197144,0.004977285396307707,-0.024254420772194862,0.318901926279068,0.0,0.0,0.0,0.0,0.0,0.0,0.0,0.0,0.0,0.9872303009033203,-0.012368103489279747,0.0005314484005793929,0.15879318118095398,0.0,0.0,0.0,1021.9540405273438,8.161494255065918,1.267112374305725,0.38999998569488525,0.0,0.0,0.0,0.0,0.0,1.401298464324817e-45
138,0.5,0.0,0.034617602825164795,0.04525990039110184,0.4339151084423065,0.043919723480939865,0.022104529663920403,0.4348662197589874,0.007419183850288391,-0.02279118075966835,0.32134687900543213,0.0,0.0,0.0,0.0,0.0,0.0,0.0,0.0,0.0,0.987038254737854,-0.011841882020235062,0.0018385379808023572,0.1600126177072525,0.0,0.1865452378988266,0.0,1021.962646484375,8.16383171081543,1.2671126127243042,0.38999998569488525,0.0,0.0,0.0,0.0,0.0,1.401298464324817e-45
138,0.5,0.0,0.008995936252176762,0.02584376372396946,0.44214531779289246,0.013193415477871895,0.010489460080862045,0.44266700744628906,0.00794682465493679,-0.025271832942962646,0.32179123163223267,0.0,0.0,0.0,0.0,0.0,0.0,0.0,0.0,0.0,0.9869856238365173,-0.013108734041452408,0.0018975596176460385,0.1602371782064438,0.0,0.0,0.0,1021.9915161132812,8.164999961853027,1.2671431303024292,0.38999998569488525,0.0,0.0,0.0,0.0,0.0,1.401298464324817e-45
138,0.5,0.0,0.01554972305893898,-0.034552548080682755,0.3434610068798065,0.0010690557537600398,-0.046620722860097885,0.3423808217048645,0.008174857124686241,-0.02603773958981037,0.3203805387020111,0.0,0.0,0.0,0.0,0.0,0.0,0.0,0.0,0.0,0.9870926737785339,-0.013503583148121834,0.0019582551904022694,0.15954309701919556,0.0,-0.09228953719139099,0.0,1021.97412109375,8.168505668640137,1.2671056985855103,0.38999998569488525,0.0,0.0,0.0,0.0,0.0,1.401298464324817e-45
138,0.5,0.0,-0.02597961015999317,0.020250502973794937,0.413239449262619,-0.022174958139657974,0.017867857590317726,0.41356757283210754,0.009466812014579773,-0.023092150688171387,0.32097485661506653,0.0,0.0,0.0,0.0,0.0,0.0,0.0,0.0,0.0,0.987060010433197,-0.012153621762990952,0.0028272822964936495,0.15984025597572327,0.0,0.0,0.0,1021.9827880859375,8.168505668640137,1.2671165466308594,0.38999998569488525,0.0,0.0,0.0,0.0,0.0,1.401298464324817e-45
138,0.5,0.0,0.026665030047297478,-0.12366771697998047,0.4182233512401581,-0.017599960789084435,-0.13702847063541412,0.41451889276504517,0.009200881235301495,-0.02706895023584366,0.3212908208370209,0.0,0.0,0.0,0.0,0.0,0.0,0.0,0.0,0.0,0.9870095252990723,-0.014095405116677284,0.0023759782779961824,0.15999983251094818,0.0,-0.16297951340675354,0.0,1021.9799194335938,8.168505668640137,1.2671129703521729,0.38999998569488525,0.0,0.0,0.0,0.0,0.0,1.401298464324817e-45
138,0.5,0.0,0.015811890363693237,-0.002321153413504362,0.3649902045726776,0.011159544810652733,-0.01780659332871437,0.3647320866584778,0.008472325280308723,-0.028982268646359444,0.3236925005912781,0.0,0.0,0.0,0.0,0.0,0.0,0.0,0.0,0.0,0.9868051409721375,-0.014983616769313812,0.0018453692318871617,0.16118218004703522,0.0,0.0,0.0,1021.9771118164062,8.16383171081543,1.2671304941177368,0.38999998569488525,0.0,0.0,0.0,0.0,0.0,1.401298464324817e-45
138,0.5,0.0,0.023818442597985268,0.05984324589371681,0.3403453528881073,0.03877978399395943,0.041207265108823776,0.34173041582107544,0.008360661566257477,-0.02327628619968891,0.3239212930202484,0.0,0.0,0.0,0.0,0.0,0.0,0.0,0.0,0.0,0.9868258237838745,-0.012159476988017559,0.0022487223614007235,0.1612885445356369,0.0,-0.09425470978021622,0.0,1021.9713134765625,8.166169166564941,1.2671127319335938,0.38999998569488525,0.0,0.0,0.0,0.0,0.0,1.401298464324817e-45
138,0.5,0.0,-0.014187796041369438,0.014143547974526882,0.44966599345207214,-0.012301298789680004,0.006432869005948305,0.4498943090438843,0.007542354520410299,-0.025590740144252777,0.32604801654815674,0.0,0.0,0.0,0.0,0.0,0.0,0.0,0.0,0.0,0.9866414070129395,-0.01323725562542677,0.0016442309133708477,0.16233539581298828,0.0,0.0,0.0,1021.9510498046875,8.166169166564941,1.267087697982788,0.38999998569488525,0.0,0.0,0.0,0.0,0.0,1.401298464324817e-45
138,0.5,0.0,-0.040577977895736694,0.012223806232213974,0.44278809428215027,-0.039839912205934525,0.013917701318860054,0.44280165433883667,0.012061980552971363,-0.024156155064702034,0.326980322599411,0.0,0.0,0.0,0.0,0.0,0.0,0.0,0.0,0.0,0.9865596294403076,-0.012898013927042484,0.003984350711107254,0.16281922161579132,0.0,0.1865483522415161,0.0,1021.9452514648438,8.167337417602539,1.2670751810073853,0.38999998569488525,0.0,0.0,0.0,0.0,0.0,1.401298464324817e-45
138,0.5,0.0,-0.014267454855144024,0.027979275211691856,0.32010361552238464,-0.007538740523159504,0.02304455079138279,0.3207229673862457,0.009495364502072334,-0.025088082998991013,0.32779985666275024,0.0,0.0,0.0,0.0,0.0,0.0,0.0,0.0,0.0,0.986496090888977,-0.01315002329647541,0.0026369981933385134,0.16321054100990295,0.0,0.0,0.0,1021.9827880859375,8.170843124389648,1.2671059370040894,0.38999998569488525,0.0,0.0,0.0,0.0,0.0,1.401298464324817e-45
138,0.5,0.0,0.010249406099319458,0.005647455342113972,0.3429698646068573,0.008207294158637524,-0.007454860024154186,0.34298768639564514,0.009637290611863136,-0.027839740738272667,0.32357481122016907,0.0,0.0,0.0,0.0,0.0,0.0,0.0,0.0,0.0,0.986819326877594,-0.014513559639453888,0.0025131162256002426,0.1611306369304657,0.0,0.25625941157341003,0.0,1021.939453125,8.167337417602539,1.2670680284500122,0.38999998569488525,0.0,0.0,0.0,0.0,0.0,1.401298464324817e-45
138,0.5,0.0,0.0038767147343605757,-0.005823827348649502,0.37884899973869324,-0.0014562089927494526,-0.016931338235735893,0.3785293400287628,0.008650165982544422,-0.026871101930737495,0.32399842143058777,0.0,0.0,0.0,0.0,0.0,0.0,0.0,0.0,0.0,0.9867952466011047,-0.013956598937511444,0.002101125195622444,0.16133219003677368,0.0,0.0,0.0,1021.9452514648438,8.168505668640137,1.267069935798645,0.38999998569488525,0.0,0.0,0.0,0.0,0.0,1.401298464324817e-45
138,0.5,0.0,0.03923497349023819,-0.0180804543197155,0.415162056684494,0.02870943211019039,-0.04096424952149391,0.41439199447631836,0.006598739884793758,-0.02734895423054695,0.323579877614975,0.0,0.0,0.0,0.0,0.0,0.0,0.0,0.0,0.0,0.9868316650390625,-0.014026777818799019,0.0010533210588619113,0.1611129492521286,0.0,0.0,0.0,1021.9596557617188,8.16967487335205,1.2670825719833374,0.38999998569488525,0.0,0.0,0.0,0.0,0.0,1.401298464324817e-45
138,0.5,0.0,0.011335808783769608,-0.005972374230623245,0.32802292704582214,0.0067031290382146835,-0.017572149634361267,0.32773131132125854,0.006550605408847332,-0.025338180363178253,0.32319167256355286,0.0,0.0,0.0,0.0,0.0,0.0,0.0,0.0,0.0,0.9868767261505127,-0.013030517846345901,0.0011940785916522145,0.16091999411582947,0.0,0.0,0.0,1021.9654541015625,8.16967487335205,1.2670897245407104,0.38999998569488525,0.0,0.0,0.0,0.0,0.0,1.401298464324817e-45
138,0.5,0.0,0.004585024435073137,-0.006677241530269384,0.42882534861564636,-0.0011790113057941198,-0.01890537515282631,0.4284800589084625,0.007945224642753601,-0.025935718789696693,0.32304176688194275,0.0,0.0,0.0,0.0,0.0,0.0,0.0,0.0,0.0,0.9868810176849365,-0.013437379151582718,0.0018351776525378227,0.16085492074489594,0.0,-0.02356375940144062,0.0,1021.9596557617188,8.170843124389648,1.2670773267745972,0.38999998569488525,0.0,0.0,0.0,0.0,0.0,1.401298464324817e-45
138,0.5,0.0,-0.00023242489260155708,0.008016121573746204,0.4213561713695526,-0.0022203598637133837,-0.0030099248979240656,0.42141255736351013,0.010771910659968853,-0.02536010555922985,0.3222837448120117,0.0,0.0,0.0,0.0,0.0,0.0,0.0,0.0,0.0,0.9869362115859985,-0.0133792944252491,0.0032813826110213995,0.16049692034721375,0.0,0.0,0.0,1021.9856567382812,8.170843124389648,1.2671095132827759,0.38999998569488525,0.0,0.0,0.0,0.0,0.0,1.401298464324817e-45
138,0.5,0.0,-0.011672882363200188,0.03838106244802475,0.33343979716300964,-0.0017542255809530616,0.03285985812544823,0.33422574400901794,0.008619725704193115,-0.021689988672733307,0.3231634497642517,0.0,0.0,0.0,0.0,0.0,0.0,0.0,0.0,0.0,0.9868955016136169,-0.011396704241633415,0.0025087955873459578,0.1609140783548355,0.0,-0.06970987468957901,0.0,1021.97119140625,8.170843124389648,1.2670916318893433,0.38999998569488525,0.0,0.0,0.0,0.0,0.0,1.401298464324817e-45
138,0.5,0.0,0.03953751549124718,0.013110590167343616,0.4640063941478729,0.03814356029033661,-0.011896166019141674,0.4641520082950592,0.007562414743006229,-0.02518484741449356,0.3250868320465088,0.0,0.0,0.0,0.0,0.0,0.0,0.0,0.0,0.0,0.986721932888031,-0.01303783431649208,0.0016933389706537127,0.16186097264289856,0.0,0.0,0.0,1021.9625244140625,8.16967487335205,1.267086148262024,0.38999998569488525,0.0,0.0,0.0,0.0,0.0,1.401298464324817e-45
