msg_type,mass,time,ax,ay,az,ax_local,ay_local,az_local,pitch,roll,yaw,vx,vy,vz,vx_local,vy_local,vz_local,x,y,z,qw,qx,qy,qz,apogee,baro_altitude,altitude,baro_pressure,baro_temperature,air_pressure,air_density,air_temperature,drag_coefficient
138,0.4169999957084656,0.0,6.912692070007324,3.760254383087158,-4.261064052581787,8.345989227294922,-1.2062910795211792,-2.9948959350585938,0.8646181225776672,-2.8351805210113525,0.46683868765830994,0.0,0.0,0.0,0.0,0.0,0.0,0.0,0.0,0.0,0.039033714681863785,-0.8878130912780762,-0.1453598588705063,0.43488624691963196,0.0,25073.4375,0.0,1002.9375,25.5625,3.354608355988929e-20,6.31432058195428e-35,-1.9694252699706225e+24,0.0,-1.9895584755341426e+37
138,0.4169999957084656,0.0,7.223627090454102,2.7695226669311523,-3.966015338897705,8.214601516723633,0.13994216918945312,-2.842496871948242,0.7905851602554321,-2.8295769691467285,0.4964883327484131,0.0,0.0,0.0,0.0,0.0,0.0,0.0,0.0,0.0,0.04553107172250748,-0.8984243273735046,-0.16600152850151062,0.4039747416973114,0.0,25073.4375,0.0,1002.9375,25.5625,-1.9705779552459717,6.179893262449391e-38,-0.0057942504063248634,0.0,2.0355675719598315e-20
138,0.4169999957084656,0.0,7.139668941497803,3.365798234939575,-3.8279995918273926,8.31912899017334,-0.46040233969688416,-2.7451510429382324,0.7725709676742554,-2.854167938232422,0.4831937849521637,0.0,0.0,0.0,0.0,0.0,0.0,0.0,0.0,0.0,0.039601270109415054,-0.9030444025993347,-0.16694730520248413,0.39377981424331665,0.0,25073.4375,0.0,1002.9375,25.5625,-1.9296130394952615e+34,-8.109383489105384e+37,-8.961248592947915e-16,0.0,4.531819456454457e+25
138,0.4169999957084656,0.0,6.746743202209473,2.8126068115234375,-3.0957422256469727,7.404567718505859,-0.3358621597290039,-2.84102463722229,0.7660331726074219,-2.8715336322784424,0.4544219672679901,0.0,0.0,0.0,0.0,0.0,0.0,0.0,0.0,0.0,0.03823643550276756,-0.9068038463592529,-0.15801861882209778,0.3889298141002655,0.0,25073.4375,0.0,1002.9375,25.5625,1.7827547164200874e-13,nan,2.512381248477428e-15,0.0,4.854334959406084e-25
138,0.4169999957084656,0.0,6.767760276794434,2.956166982650757,-3.1844115257263184,7.573530197143555,-0.3367231786251068,-2.6849844455718994,0.747414767742157,-2.871295928955078,0.46498796343803406,0.0,0.0,0.0,0.0,0.0,0.0,0.0,0.0,0.0,0.03871478885412216,-0.9089993834495544,-0.1646801084280014,0.3809111416339874,0.0,-0.3125,0.0,2621.427490234375,25.5625,3.354608355988929e-20,6.31432058195428e-35,-1.9694252699706225e+24,0.0,-1.9895584755341426e+37
138,0.4169999957084656,0.0,6.136397838592529,3.166168212890625,-3.137798309326172,7.2500457763671875,-0.5958539247512817,-2.1462948322296143,0.7245968580245972,-2.8709681034088135,0.4762813448905945,0.0,0.0,0.0,0.0,0.0,0.0,0.0,0.0,0.0,0.03973834961652756,-0.9116622805595398,-0.172102689743042,0.3710319995880127,0.0,-0.3125,0.0,2621.427490234375,25.5625,-1.9705779552459717,6.179893262449391e-38,-0.0057942504063248634,0.0,2.0355675719598315e-20
138,0.4169999957084656,0.0,6.422854423522949,3.119983673095703,-2.812398910522461,7.244382381439209,-0.42509523034095764,-2.4968278408050537,0.7102059125900269,-2.873638153076172,0.48737069964408875,0.0,0.0,0.0,0.0,0.0,0.0,0.0,0.0,0.0,0.03840326890349388,-0.9129558801651001,-0.1791277676820755,0.36461132764816284,0.0,-0.3125,0.0,2621.427490234375,25.5625,-1.9296130394952615e+34,-8.109383489105384e+37,-8.961248592947915e-16,0.0,4.531819456454457e+25
138,0.4169999957084656,0.0,6.454392910003662,2.9964661598205566,-2.4326963424682617,7.0096025466918945,-0.2562202215194702,-2.711986541748047,0.695114254951477,-2.8637194633483887,0.5046178698539734,0.0,0.0,0.0,0.0,0.0,0.0,0.0,0.0,0.0,0.041876863688230515,-0.9134367108345032,-0.18677404522895813,0.3591470420360565,0.0,-0.3125,0.0,2621.427490234375,25.5625,1.7827547164200874e-13,nan,2.512381248477428e-15,0.0,4.854334959406084e-25
138,0.4169999957084656,0.0,6.135590076446533,3.229644775390625,-2.5024209022521973,6.96943473815918,-0.3563591241836548,-2.3742904663085938,0.6756078600883484,-2.8564507961273193,0.5315477848052979,0.0,0.0,0.0,0.0,0.0,0.0,0.0,0.0,0.0,0.04318500682711601,-0.9134858250617981,-0.1998591274023056,0.351747989654541,0.0,-0.1875,0.0,2621.4326171875,25.5625,3.354608355988929e-20,6.31432058195428e-35,-1.9694252699706225e+24,0.0,-1.9895584755341426e+37
138,0.4169999957084656,0.0,5.9408416748046875,3.2381718158721924,-2.358722686767578,6.794994354248047,-0.38254910707473755,-2.2413740158081055,0.6566746234893799,-2.8604397773742676,0.5366542935371399,0.0,0.0,0.0,0.0,0.0,0.0,0.0,0.0,0.0,0.04323241114616394,-0.915677547454834,-0.20491330325603485,0.3430269956588745,0.0,-0.1875,0.0,2621.4326171875,25.5625,-1.9705779552459717,6.179893262449391e-38,-0.0057942504063248634,0.0,2.0355675719598315e-20
138,0.4169999957084656,0.0,5.445576190948486,2.923758029937744,-3.080343246459961,6.807345867156982,0.04345381632447243,-1.161258339881897,0.6244098544120789,-2.874476194381714,0.5491368770599365,0.0,0.0,0.0,0.0,0.0,0.0,0.0,0.0,0.0,0.039437972009181976,-0.9189390540122986,-0.21635577082633972,0.32737961411476135,0.0,-0.1875,0.0,2621.4326171875,25.5625,-1.9296130394952615e+34,-8.109383489105384e+37,-8.961248592947915e-16,0.0,4.531819456454457e+25
138,0.4169999957084656,0.0,6.228057384490967,2.724301338195801,-0.8380728363990784,6.384189128875732,0.1603236049413681,-2.4755842685699463,0.4780023992061615,-2.8977744579315186,0.5233772993087769,0.0,0.0,0.0,0.0,0.0,0.0,0.0,0.0,0.0,0.05333634838461876,-0.9389753937721252,-0.22168304026126862,0.2575434446334839,0.0,-0.1875,0.0,2621.4326171875,25.5625,1.7827547164200874e-13,nan,2.512381248477428e-15,0.0,4.854334959406084e-25
138,0.4169999957084656,0.0,5.629306793212891,3.1020312309265137,-2.3839120864868164,6.8267903327941895,-0.05533003434538841,0.6211270689964294,0.268669456243515,-2.9158647060394287,0.473625510931015,0.0,0.0,0.0,0.0,0.0,0.0,0.0,0.0,0.0,0.07727321982383728,-0.9607382416725159,-0.21634866297245026,0.1555495411157608,0.0,-0.25,0.0,2621.429931640625,25.5625,3.354608355988929e-20,6.31432058195428e-35,-1.9694252699706225e+24,0.0,-1.9895584755341426e+37
138,0.4169999957084656,0.0,3.8858041763305664,1.459825038909912,0.4703225791454315,4.1659016609191895,-0.1265898048877716,-0.2840881943702698,-0.040087055414915085,-2.94111704826355,0.34311020374298096,0.0,0.0,0.0,0.0,0.0,0.0,0.0,0.0,0.0,0.10198511183261871,-0.9798310399055481,-0.17179924249649048,-0.0025690088514238596,0.0,-0.25,0.0,2621.429931640625,25.5625,-1.9705779552459717,6.179893262449391e-38,-0.0057942504063248634,0.0,2.0355675719598315e-20
138,0.4169999957084656,0.0,5.368462085723877,3.4843082427978516,-1.9350991249084473,6.167384624481201,-0.7852415442466736,2.459958076477051,-0.05049331113696098,-2.9370903968811035,0.37617942690849304,0.0,0.0,0.0,0.0,0.0,0.0,0.0,0.0,0.0,0.10493594408035278,-0.9764348268508911,-0.18847724795341492,-0.00558960996568203,0.0,-0.25,0.0,2621.429931640625,25.5625,-1.9296130394952615e+34,-8.109383489105384e+37,-8.961248592947915e-16,0.0,4.531819456454457e+25
138,0.4169999957084656,0.0,4.920727729797363,2.6439154148101807,-1.4577198028564453,5.151731014251709,-0.17876724898815155,2.5992159843444824,-0.19504450261592865,-2.9299211502075195,0.36363351345062256,0.0,0.0,0.0,0.0,0.0,0.0,0.0,0.0,0.0,0.12091013789176941,-0.9715024828910828,-0.1890660673379898,-0.07621709257364273,0.0,-0.0625,0.0,2621.4375,25.5625,1.7827547164200874e-13,nan,2.512381248477428e-15,0.0,4.854334959406084e-25
138,0.4169999957084656,0.0,4.804078578948975,3.5503551959991455,-2.110586166381836,4.449667453765869,-0.7058516144752502,4.454247951507568,-0.4079969823360443,-2.939993143081665,0.3681584894657135,0.0,0.0,0.0,0.0,0.0,0.0,0.0,0.0,0.0,0.1337709277868271,-0.9540972113609314,-0.19837705790996552,-0.18011653423309326,0.0,-0.0625,0.0,2621.4375,25.5625,3.354608355988929e-20,6.31432058195428e-35,-1.9694252699706225e+24,0.0,-1.9895584755341426e+37
138,0.4169999957084656,0.0,4.419218063354492,2.9289727210998535,-0.4995098412036896,3.6938304901123047,-0.5273013710975647,3.7993364334106445,-0.6864829063415527,-2.986889123916626,0.3750676214694977,0.0,0.0,0.0,0.0,0.0,0.0,0.0,0.0,0.0,0.13404719531536102,-0.9175384044647217,-0.20058579742908478,-0.3160874843597412,0.0,-0.0625,0.0,2621.4375,25.5625,-1.9705779552459717,6.179893262449391e-38,-0.0057942504063248634,0.0,2.0355675719598315e-20
138,0.4169999957084656,0.0,5.514237880706787,4.118569374084473,-1.6634893417358398,3.2172627449035645,-0.8303923606872559,6.252635955810547,-0.8391745090484619,-3.0002856254577637,0.39151784777641296,0.0,0.0,0.0,0.0,0.0,0.0,0.0,0.0,0.0,0.14228272438049316,-0.8879796862602234,-0.20540428161621094,-0.3860679268836975,0.0,-0.0625,0.0,2621.4375,25.5625,-1.9296130394952615e+34,-8.109383489105384e+37,-8.961248592947915e-16,0.0,4.531819456454457e+25
138,0.4169999957084656,0.0,4.135326385498047,3.2713687419891357,-1.2789793014526367,1.5443105697631836,-0.7123067378997803,5.1522603034973145,-1.0140600204467773,-2.937910795211792,0.33302542567253113,0.0,0.0,0.0,0.0,0.0,0.0,0.0,0.0,0.0,0.16771091520786285,-0.849443256855011,-0.1928246170282364,-0.4616592228412628,0.0,-0.3125,0.0,2621.427490234375,25.5625,1.7827547164200874e-13,nan,2.512381248477428e-15,0.0,4.854334959406084e-25
138,0.4169999957084656,0.0,3.805795907974243,3.2457022666931152,-1.5290021896362305,0.5161308646202087,-0.7765562534332275,5.146515846252441,-1.1380431652069092,-2.87654185295105,0.27338531613349915,0.0,0.0,0.0,0.0,0.0,0.0,0.0,0.0,0.0,0.1830560714006424,-0.8175422549247742,-0.18432128429412842,-0.5139381885528564,0.0,-0.3125,0.0,2621.427490234375,25.5625,3.354608355988929e-20,6.31432058195428e-35,-1.9694252699706225e+24,0.0,-1.9895584755341426e+37
138,0.4169999957084656,0.0,3.9751956462860107,2.864907741546631,-1.171015739440918,0.15945380926132202,-0.23607143759727478,5.029867172241211,-1.2704883813858032,-2.7117345333099365,0.1333916336297989,0.0,0.0,0.0,0.0,0.0,0.0,0.0,0.0,0.0,0.20992600917816162,-0.7762124538421631,-0.1786845624446869,-0.566999614238739,0.0,-0.3125,0.0,2621.427490234375,25.5625,-1.9705779552459717,6.179893262449391e-38,-0.0057942504063248634,0.0,2.0355675719598315e-20
138,0.4169999957084656,0.0,4.0558037757873535,3.553715229034424,-1.6925554275512695,-0.8492653965950012,-0.5720838904380798,5.558246612548828,-1.3588608503341675,-2.4971890449523926,-0.061520401388406754,0.0,0.0,0.0,0.0,0.0,0.0,0.0,0.0,0.0,0.22788383066654205,-0.7436543703079224,-0.17618677020072937,-0.6033215522766113,0.0,-0.3125,0.0,2621.427490234375,25.5625,-1.9296130394952615e+34,-8.109383489105384e+37,-8.961248592947915e-16,0.0,4.531819456454457e+25
138,0.4169999957084656,0.0,4.156343460083008,3.5056674480438232,-1.6636695861816406,-1.7373889684677124,-0.3346984386444092,5.403850078582764,-1.4284584522247314,-1.5594143867492676,-0.9878249168395996,0.0,0.0,0.0,0.0,0.0,0.0,0.0,0.0,0.0,0.2547532021999359,-0.6885685920715332,-0.15831008553504944,-0.6602298617362976,0.0,-0.4375,0.0,2621.422607421875,25.5625,1.7827547164200874e-13,nan,2.512381248477428e-15,0.0,4.854334959406084e-25
138,0.4169999957084656,0.0,4.538783550262451,3.8709094524383545,-1.4316320419311523,-2.1966965198516846,-0.36391863226890564,5.716249942779541,-1.3917298316955566,-0.8367310762405396,-1.700426697731018,0.0,0.0,0.0,0.0,0.0,0.0,0.0,0.0,0.0,0.2670235335826874,-0.6458988189697266,-0.15221309661865234,-0.6988102793693542,0.0,-0.4375,0.0,2621.422607421875,25.5625,3.354608355988929e-20,6.31432058195428e-35,-1.9694252699706225e+24,0.0,-1.9895584755341426e+37
138,0.4169999957084656,0.0,4.035550594329834,3.5694055557250977,-1.5961017608642578,-2.714259624481201,-0.25878432393074036,4.913160800933838,-1.328902244567871,-0.5436078906059265,-1.9722849130630493,0.0,0.0,0.0,0.0,0.0,0.0,0.0,0.0,0.0,0.2804846167564392,-0.6119852066040039,-0.15158939361572266,-0.7237503528594971,0.0,-0.4375,0.0,2621.422607421875,25.5625,-1.9705779552459717,6.179893262449391e-38,-0.0057942504063248634,0.0,2.0355675719598315e-20
138,0.4169999957084656,0.0,3.4668033123016357,3.3544881343841553,-1.5731687545776367,-3.0163745880126953,-0.2904210388660431,4.069750785827637,-1.2407268285751343,-0.3235926628112793,-2.159876585006714,0.0,0.0,0.0,0.0,0.0,0.0,0.0,0.0,0.0,0.2959429919719696,-0.5677886605262756,-0.15485697984695435,-0.7523592710494995,0.0,-0.5625,0.0,2621.41748046875,25.5625,-1.9296130394952615e+34,-8.109383489105384e+37,-8.961248592947915e-16,0.0,4.531819456454457e+25
138,0.4169999957084656,0.0,3.8660168647766113,3.2790517807006836,-1.1523876190185547,-3.243704080581665,0.14329516887664795,4.060007095336914,-1.1104921102523804,-0.2027052342891693,-2.2480921745300293,0.0,0.0,0.0,0.0,0.0,0.0,0.0,0.0,0.0,0.3171423077583313,-0.5101260542869568,-0.14904272556304932,-0.7854743599891663,0.0,-0.5625,0.0,2621.41748046875,25.5625,1.7827547164200874e-13,nan,2.512381248477428e-15,0.0,4.854334959406084e-25
138,0.4169999957084656,0.0,3.626333713531494,3.4526596069335938,-1.9274978637695312,-4.291156768798828,0.08021613955497742,3.219541311264038,-1.0056889057159424,-0.1555940806865692,-2.2649943828582764,0.0,0.0,0.0,0.0,0.0,0.0,0.0,0.0,0.0,0.336823970079422,-0.4639505445957184,-0.14224904775619507,-0.8068804740905762,0.0,-0.5625,0.0,2621.41748046875,25.5625,3.354608355988929e-20,6.31432058195428e-35,-1.9694252699706225e+24,0.0,-1.9895584755341426e+37
138,0.4169999957084656,0.0,4.136421203613281,3.5882833003997803,-1.4236936569213867,-4.484190464019775,0.41776955127716064,3.4248526096343994,-0.8980709910392761,-0.1276678591966629,-2.27109956741333,0.0,0.0,0.0,0.0,0.0,0.0,0.0,0.0,0.0,0.3539498448371887,-0.4170551598072052,-0.13054990768432617,-0.8268812298774719,0.0,-0.5625,0.0,2621.41748046875,25.5625,-1.9705779552459717,6.179893262449391e-38,-0.0057942504063248634,0.0,2.0355675719598315e-20
138,0.4169999957084656,0.0,3.792233467102051,3.356703519821167,-1.645024299621582,-4.7015910148620605,0.4278843104839325,2.462939739227295,-0.7880972623825073,-0.11945006996393204,-2.274721384048462,0.0,0.0,0.0,0.0,0.0,0.0,0.0,0.0,0.0,0.3663126230239868,-0.37095576524734497,-0.11094248294830322,-0.8461028933525085,0.0,-0.1875,0.0,2621.4326171875,25.5625,-1.9296130394952615e+34,-8.109383489105384e+37,-8.961248592947915e-16,0.0,4.531819456454457e+25
138,0.4169999957084656,0.0,4.124582290649414,3.9728071689605713,-1.6578712463378906,-5.369289875030518,0.35628047585487366,2.5665359497070312,-0.7216588854789734,-0.10237687081098557,-2.267035961151123,0.0,0.0,0.0,0.0,0.0,0.0,0.0,0.0,0.0,0.3793196678161621,-0.3396860659122467,-0.10594653338193893,-0.8541058897972107,0.0,-0.1875,0.0,2621.4326171875,25.5625,1.7827547164200874e-13,nan,2.512381248477428e-15,0.0,4.854334959406084e-25
138,0.4169999957084656,0.0,4.117036819458008,3.7814252376556396,-1.0331907272338867,-4.882554054260254,0.4810466170310974,2.8714749813079834,-0.7053601741790771,-0.1109912097454071,-2.2557525634765625,0.0,0.0,0.0,0.0,0.0,0.0,0.0,0.0,0.0,0.38426873087882996,-0.3339132070541382,-0.1007804125547409,-0.8547949194908142,0.0,-0.1875,0.0,2621.4326171875,25.5625,3.354608355988929e-20,6.31432058195428e-35,-1.9694252699706225e+24,0.0,-1.9895584755341426e+37
138,0.4169999957084656,0.0,2.9030067920684814,3.3756701946258545,-2.101634979248047,-4.77381706237793,0.047488968819379807,1.2031062841415405,-0.6851661801338196,-0.1278231292963028,-2.236013650894165,0.0,0.0,0.0,0.0,0.0,0.0,0.0,0.0,0.0,0.3919175863265991,-0.32777243852615356,-0.0925637036561966,-0.8546280264854431,0.0,-0.1875,0.0,2621.4326171875,25.5625,-1.9705779552459717,6.179893262449391e-38,-0.0057942504063248634,0.0,2.0355675719598315e-20
138,0.4169999957084656,0.0,2.8719429969787598,2.891399383544922,-1.7093935012817383,-4.221996784210205,0.3071461021900177,1.2689932584762573,-0.6824489831924438,-0.10772218555212021,-2.2441954612731934,0.0,0.0,0.0,0.0,0.0,0.0,0.0,0.0,0.0,0.3919559717178345,-0.32308703660964966,-0.09924617409706116,-0.8556442260742188,0.0,-0.3125,0.0,2621.427490234375,25.5625,-1.9296130394952615e+34,-8.109383489105384e+37,-8.961248592947915e-16,0.0,4.531819456454457e+25
138,0.4169999957084656,0.0,4.0318522453308105,4.102051258087158,0.18759627640247345,-4.251830101013184,0.3647054433822632,3.8608551025390625,-0.6958979964256287,-0.11182882636785507,-2.2092018127441406,0.0,0.0,0.0,0.0,0.0,0.0,0.0,0.0,0.0,0.4048701822757721,-0.3277239203453064,-0.10609486699104309,-0.8470019698143005,0.0,-0.3125,0.0,2621.427490234375,25.5625,1.7827547164200874e-13,nan,2.512381248477428e-15,0.0,4.854334959406084e-25
138,0.4169999957084656,0.0,3.2410526275634766,3.455366849899292,-1.7852048873901367,-4.78882360458374,0.4703667163848877,1.5736660957336426,-0.6683220863342285,-0.11942213773727417,-2.185603618621826,0.0,0.0,0.0,0.0,0.0,0.0,0.0,0.0,0.0,0.41639941930770874,-0.31663161516189575,-0.10054514557123184,-0.8463084697723389,0.0,-0.3125,0.0,2621.427490234375,25.5625,3.354608355988929e-20,6.31432058195428e-35,-1.9694252699706225e+24,0.0,-1.9895584755341426e+37
138,0.4169999957084656,0.0,2.5272462368011475,2.990811347961426,-0.9919319748878479,-3.6097097396850586,0.2016880363225937,1.8013581037521362,-0.704092264175415,-0.11966762691736221,-2.1661200523376465,0.0,0.0,0.0,0.0,0.0,0.0,0.0,0.0,0.0,0.42088109254837036,-0.33037269115448,-0.11171815544366837,-0.8373908400535583,0.0,-0.3125,0.0,2621.427490234375,25.5625,-1.9705779552459717,6.179893262449391e-38,-0.0057942504063248634,0.0,2.0355675719598315e-20
138,0.4169999957084656,0.0,4.062747478485107,3.926401376724243,-0.6104136109352112,-4.695516109466553,0.8843097686767578,3.0764787197113037,-0.6711293458938599,-0.11937376856803894,-2.1511898040771484,0.0,0.0,0.0,0.0,0.0,0.0,0.0,0.0,0.0,0.43061867356300354,-0.31599560379981995,-0.10665161162614822,-0.8386484384536743,0.0,0.0625,0.0,0.0024999999441206455,25.5625,-1.9296130394952615e+34,-8.109383489105384e+37,-8.961248592947915e-16,0.0,4.531819456454457e+25
138,0.4169999957084656,0.0,3.033830404281616,3.0257487297058105,-1.8721961975097656,-4.529810905456543,0.7749096751213074,0.8627630472183228,-0.5814296007156372,-0.15056414902210236,-2.146965503692627,0.0,0.0,0.0,0.0,0.0,0.0,0.0,0.0,0.0,0.4368044137954712,-0.2855786085128784,-0.07303173094987869,-0.849885106086731,0.0,0.0625,0.0,0.0024999999441206455,25.5625,1.7827547164200874e-13,nan,2.512381248477428e-15,0.0,4.854334959406084e-25
138,0.4169999957084656,0.0,3.2976949214935303,3.3161277770996094,-1.5406789779663086,-4.723550796508789,0.791392982006073,1.1430402994155884,-0.5330359935760498,-0.16440938413143158,-2.144958019256592,0.0,0.0,0.0,0.0,0.0,0.0,0.0,0.0,0.0,0.4405180811882019,-0.26842400431632996,-0.055875152349472046,-0.8548461198806763,0.0,0.0625,0.0,0.0024999999441206455,25.5625,3.354608355988929e-20,6.31432058195428e-35,-1.9694252699706225e+24,0.0,-1.9895584755341426e+37
138,0.4169999957084656,0.0,3.5021677017211914,3.436211109161377,-0.9294033646583557,-4.618237495422363,0.8161212205886841,1.7152031660079956,-0.5163702964782715,-0.16918163001537323,-2.140986919403076,0.0,0.0,0.0,0.0,0.0,0.0,0.0,0.0,0.0,0.4432026743888855,-0.2624184191226959,-0.05036336928606033,-0.8556652069091797,0.0,-0.1875,0.0,2621.4326171875,25.5625,-1.9705779552459717,6.179893262449391e-38,-0.0057942504063248634,0.0,2.0355675719598315e-20
138,0.4169999957084656,0.0,3.2346444129943848,3.2811052799224854,-1.510610580444336,-4.6831583976745605,0.8036340475082397,0.9655605554580688,-0.49628475308418274,-0.1675100475549698,-2.140636920928955,0.0,0.0,0.0,0.0,0.0,0.0,0.0,0.0,0.0,0.44548794627189636,-0.2536396086215973,-0.04629073292016983,-0.8573539853096008,0.0,-0.1875,0.0,2621.4326171875,25.5625,-1.9296130394952615e+34,-8.109383489105384e+37,-8.961248592947915e-16,0.0,4.531819456454457e+25
138,0.4169999957084656,0.0,3.2210628986358643,3.6457700729370117,-0.8568134903907776,-4.671115875244141,0.5005892515182495,1.5266575813293457,-0.47252312302589417,-0.16272422671318054,-2.1414473056793213,0.0,0.0,0.0,0.0,0.0,0.0,0.0,0.0,0.0,0.44793063402175903,-0.24261529743671417,-0.042524419724941254,-0.8594644069671631,0.0,-0.1875,0.0,2621.4326171875,25.5625,1.7827547164200874e-13,nan,2.512381248477428e-15,0.0,4.854334959406084e-25
138,0.4169999957084656,0.0,2.997161865234375,3.4450266361236572,-1.204549789428711,-4.587957382202148,0.5062976479530334,0.9980201125144958,-0.4548281133174896,-0.1627628356218338,-2.1414449214935303,0.0,0.0,0.0,0.0,0.0,0.0,0.0,0.0,0.0,0.44951269030570984,-0.23517173528671265,-0.038247957825660706,-0.8609070181846619,0.0,-0.1875,0.0,2621.4326171875,25.5625,3.354608355988929e-20,6.31432058195428e-35,-1.9694252699706225e+24,0.0,-1.9895584755341426e+37
138,0.4169999957084656,0.0,3.270601749420166,3.216808319091797,-1.0251884460449219,-4.483835220336914,0.8599280118942261,1.1185120344161987,-0.4373491704463959,-0.1624322086572647,-2.138141393661499,0.0,0.0,0.0,0.0,0.0,0.0,0.0,0.0,0.0,0.4525059163570404,-0.22766117751598358,-0.034555502235889435,-0.8615138530731201,0.0,-0.1875,0.0,2621.4326171875,25.5625,-1.9705779552459717,6.179893262449391e-38,-0.0057942504063248634,0.0,2.0355675719598315e-20
138,0.4169999957084656,0.0,3.085336446762085,3.3200788497924805,-0.9844980835914612,-4.463447570800781,0.6778634190559387,1.0626533031463623,-0.42456570267677307,-0.16443778574466705,-2.132549524307251,0.0,0.0,0.0,0.0,0.0,0.0,0.0,0.0,0.0,0.45579177141189575,-0.2226264625787735,-0.031222917139530182,-0.8612246513366699,0.0,-0.1875,0.0,2621.4326171875,25.5625,-1.9296130394952615e+34,-8.109383489105384e+37,-8.961248592947915e-16,0.0,4.531819456454457e+25
138,0.4169999957084656,0.0,2.6152217388153076,3.1181421279907227,-1.5994749069213867,-4.332923412322998,0.5378566384315491,0.23805472254753113,-0.411581426858902,-0.16550761461257935,-2.128243923187256,0.0,0.0,0.0,0.0,0.0,0.0,0.0,0.0,0.0,0.4586361050605774,-0.21732361614704132,-0.028073230758309364,-0.8611775040626526,0.0,-0.1875,0.0,2621.4326171875,25.5625,1.7827547164200874e-13,nan,2.512381248477428e-15,0.0,4.854334959406084e-25
138,0.4169999957084656,0.0,3.0222220420837402,3.29469633102417,-0.7745218873023987,-4.34403657913208,0.6725654602050781,1.1248934268951416,-0.40164074301719666,-0.15976180136203766,-2.1234078407287598,0.0,0.0,0.0,0.0,0.0,0.0,0.0,0.0,0.0,0.4621662199497223,-0.21173250675201416,-0.028634484857320786,-0.860664427280426,0.0,-0.1875,0.0,2621.4326171875,25.5625,3.354608355988929e-20,6.31432058195428e-35,-1.9694252699706225e+24,0.0,-1.9895584755341426e+37
138,0.4169999957084656,0.0,3.2737929821014404,3.470031261444092,-0.6402817368507385,-4.567511081695557,0.7863773107528687,1.2991732358932495,-0.38428306579589844,-0.1608937382698059,-2.1192734241485596,0.0,0.0,0.0,0.0,0.0,0.0,0.0,0.0,0.0,0.4652472138404846,-0.2046021670103073,-0.024316351860761642,-0.8608617782592773,0.0,-0.3125,0.0,2621.427490234375,25.5625,-1.9705779552459717,6.179893262449391e-38,-0.0057942504063248634,0.0,2.0355675719598315e-20
138,0.4169999957084656,0.0,2.968297004699707,3.283156394958496,-0.49540427327156067,-4.2357659339904785,0.6449313759803772,1.2154607772827148,-0.36677414178848267,-0.16080814599990845,-2.1169447898864746,0.0,0.0,0.0,0.0,0.0,0.0,0.0,0.0,0.0,0.467658668756485,-0.19714593887329102,-0.020274527370929718,-0.8613996505737305,0.0,-0.3125,0.0,2621.427490234375,25.5625,-1.9296130394952615e+34,-8.109383489105384e+37,-8.961248592947915e-16,0.0,4.531819456454457e+25
138,0.4169999957084656,0.0,2.5193684101104736,3.2836241722106934,-1.418252944946289,-4.350369453430176,0.44116291403770447,0.14205391705036163,-0.34718242287635803,-0.1688065528869629,-2.1141743659973145,0.0,0.0,0.0,0.0,0.0,0.0,0.0,0.0,0.0,0.46961867809295654,-0.1906971037387848,-0.012256963178515434,-0.8619362711906433,0.0,-0.3125,0.0,2621.427490234375,25.5625,1.7827547164200874e-13,nan,2.512381248477428e-15,0.0,4.854334959406084e-25
138,0.4169999957084656,0.0,2.5601556301116943,3.2482900619506836,-0.7298031449317932,-4.1095476150512695,0.4145981967449188,0.7601426243782043,-0.34052473306655884,-0.164692685008049,-2.108891487121582,0.0,0.0,0.0,0.0,0.0,0.0,0.0,0.0,0.0,0.47279971837997437,-0.1868736296892166,-0.012876493856310844,-0.8610250353813171,0.0,-0.375,0.0,2621.425048828125,25.5625,3.354608355988929e-20,6.31432058195428e-35,-1.9694252699706225e+24,0.0,-1.9895584755341426e+37
138,0.4169999957084656,0.0,2.5944747924804688,2.8757073879241943,-0.8266602158546448,-3.859062910079956,0.6938164234161377,0.5570840835571289,-0.32741260528564453,-0.16228820383548737,-2.1034445762634277,0.0,0.0,0.0,0.0,0.0,0.0,0.0,0.0,0.0,0.47636112570762634,-0.1807154268026352,-0.011145765893161297,-0.8604006171226501,0.0,-0.375,0.0,2621.425048828125,25.5625,-1.9705779552459717,6.179893262449391e-38,-0.0057942504063248634,0.0,2.0355675719598315e-20
138,0.4169999957084656,0.0,2.283522844314575,2.8931174278259277,-1.4260149002075195,-3.9104666709899902,0.5426125526428223,-0.17796693742275238,-0.3043941557407379,-0.16802307963371277,-2.1014699935913086,0.0,0.0,0.0,0.0,0.0,0.0,0.0,0.0,0.0,0.4784143567085266,-0.17231900990009308,-0.0030983365140855312,-0.8610502481460571,0.0,-0.375,0.0,2621.425048828125,25.5625,-1.9296130394952615e+34,-8.109383489105384e+37,-8.961248592947915e-16,0.0,4.531819456454457e+25
138,0.4169999957084656,0.0,2.691277027130127,2.9239046573638916,-0.7723580002784729,-3.936467170715332,0.7888891696929932,0.5199291706085205,-0.29336267709732056,-0.16613353788852692,-2.095618724822998,0.0,0.0,0.0,0.0,0.0,0.0,0.0,0.0,0.0,0.48189473152160645,-0.16717985272407532,-0.0016407076036557555,-0.8601261973381042,0.0,-0.375,0.0,2621.425048828125,25.5625,1.7827547164200874e-13,nan,2.512381248477428e-15,0.0,4.854334959406084e-25
138,0.4169999957084656,0.0,2.730523109436035,2.766848087310791,-0.5125637650489807,-3.7588207721710205,0.8873928189277649,0.6763622164726257,-0.2721754312515259,-0.16952235996723175,-2.0923972129821777,0.0,0.0,0.0,0.0,0.0,0.0,0.0,0.0,0.0,0.4845091700553894,-0.15901395678520203,0.004889659583568573,-0.8601936101913452,0.0,-0.3125,0.0,2621.427490234375,25.5625,3.354608355988929e-20,6.31432058195428e-35,-1.9694252699706225e+24,0.0,-1.9895584755341426e+37
138,0.4169999957084656,0.0,2.265227794647217,2.3636980056762695,-0.7742262482643127,-3.2696468830108643,0.7708963751792908,0.18079306185245514,-0.2530827820301056,-0.17231276631355286,-2.0910630226135254,0.0,0.0,0.0,0.0,0.0,0.0,0.0,0.0,0.0,0.4861895740032196,-0.15158984065055847,0.010804436169564724,-0.860531747341156,0.0,-0.3125,0.0,2621.427490234375,25.5625,-1.9705779552459717,6.179893262449391e-38,-0.0057942504063248634,0.0,2.0355675719598315e-20
138,0.4169999957084656,0.0,1.9595909118652344,2.7466881275177,-0.7853499054908752,-3.4444260597229004,0.35300400853157043,0.11035563796758652,-0.24502380192279816,-0.16259285807609558,-2.0817313194274902,0.0,0.0,0.0,0.0,0.0,0.0,0.0,0.0,0.0,0.4914628863334656,-0.1458365023136139,0.007975277490913868,-0.8585591316223145,0.0,-0.3125,0.0,2621.427490234375,25.5625,-1.9296130394952615e+34,-8.109383489105384e+37,-8.961248592947915e-16,0.0,4.531819456454457e+25
138,0.4169999957084656,0.0,2.5066943168640137,2.9370784759521484,-0.6424341797828674,-3.8333892822265625,0.7085052132606506,0.3543287515640259,-0.2293224334716797,-0.16237133741378784,-2.0801138877868652,0.0,0.0,0.0,0.0,0.0,0.0,0.0,0.0,0.0,0.4931870102882385,-0.1391255110502243,0.011760133318603039,-0.8586406111717224,0.0,-0.3125,0.0,2621.427490234375,25.5625,1.7827547164200874e-13,nan,2.512381248477428e-15,0.0,4.854334959406084e-25
138,0.4169999957084656,0.0,2.0605905055999756,2.5219380855560303,-0.7301207184791565,-3.2857611179351807,0.5840767025947571,0.04144217446446419,-0.20807349681854248,-0.16058681905269623,-2.0758121013641357,0.0,0.0,0.0,0.0,0.0,0.0,0.0,0.0,0.0,0.4964734613895416,-0.12968863546848297,0.016123740002512932,-0.8581528663635254,0.0,-0.3125,0.0,2621.427490234375,25.5625,3.354608355988929e-20,6.31432058195428e-35,-1.9694252699706225e+24,0.0,-1.9895584755341426e+37
138,0.4169999957084656,0.0,1.7366055250167847,2.1372153759002686,-0.8252020478248596,-2.816652774810791,0.5341259837150574,-0.21326559782028198,-0.1898593157529831,-0.1668350249528885,-2.0737791061401367,0.0,0.0,0.0,0.0,0.0,0.0,0.0,0.0,0.0,0.49804651737213135,-0.12352269887924194,0.02333175763487816,-0.8579853773117065,0.0,-0.3125,0.0,2621.427490234375,25.5625,-1.9705779552459717,6.179893262449391e-38,-0.0057942504063248634,0.0,2.0355675719598315e-20
138,0.4169999957084656,0.0,1.7381099462509155,2.5664925575256348,-0.006912269629538059,-3.0301778316497803,0.22129939496517181,0.6138775944709778,-0.18892283737659454,-0.1550222933292389,-2.064786434173584,0.0,0.0,0.0,0.0,0.0,0.0,0.0,0.0,0.0,0.5026744604110718,-0.12026258558034897,0.017962688580155373,-0.8558762669563293,0.0,-0.3125,0.0,2621.427490234375,25.5625,-1.9296130394952615e+34,-8.109383489105384e+37,-8.961248592947915e-16,0.0,4.531819456454457e+25
138,0.4169999957084656,0.0,1.8324964046478271,2.476522445678711,-0.7874088883399963,-3.1379125118255615,0.48535341024398804,-0.17023447155952454,-0.17550870776176453,-0.15522800385951996,-2.060190439224243,0.0,0.0,0.0,0.0,0.0,0.0,0.0,0.0,0.0,0.5053845643997192,-0.11467058211565018,0.021242473274469376,-0.8549720048904419,0.0,-0.3125,0.0,2621.427490234375,25.5625,1.7827547164200874e-13,nan,2.512381248477428e-15,0.0,4.854334959406084e-25
138,0.4169999957084656,0.0,1.5603116750717163,1.4587461948394775,-0.49701693654060364,-2.0724024772644043,0.7151161432266235,-0.05670003965497017,-0.16105468571186066,-0.15560196340084076,-2.0570812225341797,0.0,0.0,0.0,0.0,0.0,0.0,0.0,0.0,0.0,0.5074836015701294,-0.1086728498339653,0.0249695535749197,-0.8544113039970398,0.0,-0.25,0.0,2621.429931640625,25.5625,3.354608355988929e-20,6.31432058195428e-35,-1.9694252699706225e+24,0.0,-1.9895584755341426e+37
138,0.4169999957084656,0.0,1.458594560623169,0.7824468016624451,0.25284382700920105,-1.3084499835968018,0.8508385419845581,0.6063299775123596,-0.16445450484752655,-0.14885205030441284,-2.051593065261841,0.0,0.0,0.0,0.0,0.0,0.0,0.0,0.0,0.0,0.5100111961364746,-0.10845919698476791,0.02090752124786377,-0.8530413508415222,0.0,-0.25,0.0,2621.429931640625,25.5625,-1.9705779552459717,6.179893262449391e-38,-0.0057942504063248634,0.0,2.0355675719598315e-20
138,0.4169999957084656,0.0,1.2029390335083008,1.1838128566741943,-0.1981382817029953,-1.6120860576629639,0.521077036857605,0.13168714940547943,-0.15947586297988892,-0.1382710188627243,-2.0421152114868164,0.0,0.0,0.0,0.0,0.0,0.0,0.0,0.0,0.0,0.5148662328720093,-0.10373269766569138,0.017197927460074425,-0.8507925271987915,0.0,-0.25,0.0,2621.429931640625,25.5625,-1.9296130394952615e+34,-8.109383489105384e+37,-8.961248592947915e-16,0.0,4.531819456454457e+25
138,0.4169999957084656,0.0,1.2827197313308716,0.6375443339347839,-0.2554788887500763,-1.1808509826660156,0.8500654697418213,-0.00678573502227664,-0.1194353699684143,-0.12842392921447754,-2.0517959594726562,0.0,0.0,0.0,0.0,0.0,0.0,0.0,0.0,0.0,0.5130635499954224,-0.08413481712341309,0.023905500769615173,-0.8538777828216553,0.0,0.0,0.0,0.0,25.5625,1.7827547164200874e-13,nan,2.512381248477428e-15,0.0,4.854334959406084e-25
138,0.4169999957084656,0.0,1.0802664756774902,0.9428836703300476,-0.4619121849536896,-1.368399739265442,0.5708522796630859,-0.2663445472717285,-0.0900370329618454,-0.13404296338558197,-2.0452821254730225,0.0,0.0,0.0,0.0,0.0,0.0,0.0,0.0,0.0,0.5168423056602478,-0.07318784296512604,0.03370171785354614,-0.8522753119468689,0.0,0.0,0.0,0.0,25.5625,3.354608355988929e-20,6.31432058195428e-35,-1.9694252699706225e+24,0.0,-1.9895584755341426e+37
138,0.4169999957084656,0.0,0.9749019742012024,0.8167317509651184,-0.33544352650642395,-1.1888437271118164,0.5321819186210632,-0.1827850341796875,-0.07457674294710159,-0.12468639016151428,-2.0356457233428955,0.0,0.0,0.0,0.0,0.0,0.0,0.0,0.0,0.0,0.5218563675880432,-0.06436210125684738,0.033438440412282944,-0.8499392867088318,0.0,0.0,0.0,0.0,25.5625,-1.9705779552459717,6.179893262449391e-38,-0.0057942504063248634,0.0,2.0355675719598315e-20
138,0.4169999957084656,0.0,1.0197339057922363,0.5201679468154907,-0.35855868458747864,-0.9375414252281189,0.7136821150779724,-0.22504647076129913,-0.055465854704380035,-0.11734318733215332,-2.0312039852142334,0.0,0.0,0.0,0.0,0.0,0.0,0.0,0.0,0.0,0.5246151089668274,-0.054420456290245056,0.03521973267197609,-0.8488630652427673,0.0,0.0,0.0,0.0,25.5625,-1.9296130394952615e+34,-8.109383489105384e+37,-8.961248592947915e-16,0.0,4.531819456454457e+25
138,0.4169999957084656,0.0,1.2096096277236938,0.8891915082931519,-0.1685505360364914,-1.3329468965530396,0.708680272102356,-0.05667273327708244,-0.058464594185352325,-0.048293180763721466,-2.0187582969665527,0.0,0.0,0.0,0.0,0.0,0.0,0.0,0.0,0.0,0.5314040780067444,-0.03758307173848152,0.004873128607869148,-0.8462652564048767,0.0,-0.4375,0.0,2621.422607421875,25.5625,1.7827547164200874e-13,nan,2.512381248477428e-15,0.0,4.854334959406084e-25
138,0.4169999957084656,0.0,0.8974490165710449,0.6284940838813782,0.7839974761009216,-0.9102599620819092,0.5295212268829346,0.840282142162323,-0.04533398151397705,-0.02625536359846592,-2.003276824951172,0.0,0.0,0.0,0.0,0.0,0.0,0.0,0.0,0.0,0.5384851098060608,-0.026163214817643166,-0.0011587518965825438,-0.8422228097915649,0.0,-0.4375,0.0,2621.422607421875,25.5625,3.354608355988929e-20,6.31432058195428e-35,-1.9694252699706225e+24,0.0,-1.9895584755341426e+37
138,0.4169999957084656,0.0,0.9673721194267273,0.21094852685928345,-0.6168003678321838,-0.6071763038635254,0.8210093379020691,-0.5639220476150513,-0.012893835082650185,-0.0560336634516716,-2.0061957836151123,0.0,0.0,0.0,0.0,0.0,0.0,0.0,0.0,0.0,0.5373161435127258,-0.020495614036917686,0.020153358578681946,-0.8428858518600464,0.0,-0.4375,0.0,2621.422607421875,25.5625,-1.9705779552459717,6.179893262449391e-38,-0.0057942504063248634,0.0,2.0355675719598315e-20
138,0.4169999957084656,0.0,0.7741297483444214,0.253031462430954,0.11519428342580795,-0.5525380373001099,0.5884687900543213,0.15800721943378448,0.0029528154991567135,-0.07484463602304459,-1.9999538660049438,0.0,0.0,0.0,0.0,0.0,0.0,0.0,0.0,0.0,0.5399869680404663,-0.018973790109157562,0.03227899223566055,-0.8408350944519043,0.0,-0.4375,0.0,2621.422607421875,25.5625,-1.9296130394952615e+34,-8.109383489105384e+37,-8.961248592947915e-16,0.0,4.531819456454457e+25
138,0.4169999957084656,0.0,0.5628396272659302,0.20611095428466797,-0.6159144043922424,-0.4055413007736206,0.48154813051223755,-0.5850263237953186,0.020168861374258995,-0.08597344160079956,-1.9916107654571533,0.0,0.0,0.0,0.0,0.0,0.0,0.0,0.0,0.0,0.5436585545539856,-0.014913962222635746,0.041540294885635376,-0.8381401300430298,0.0,-0.25,0.0,2621.429931640625,25.5625,1.7827547164200874e-13,nan,2.512381248477428e-15,0.0,4.854334959406084e-25
138,0.4169999957084656,0.0,0.5684273838996887,0.33892810344696045,-0.4843797981739044,-0.5185461640357971,0.42890989780426025,-0.46876490116119385,0.03943059593439102,-0.08946092426776886,-1.9824680089950562,0.0,0.0,0.0,0.0,0.0,0.0,0.0,0.0,0.0,0.5477389097213745,-0.008005612529814243,0.04819195717573166,-0.835216760635376,0.0,-0.25,0.0,2621.429931640625,25.5625,3.354608355988929e-20,6.31432058195428e-35,-1.9694252699706225e+24,0.0,-1.9895584755341426e+37
138,0.4169999957084656,0.0,0.8925636410713196,-0.03792072460055351,0.06963440030813217,-0.32278648018836975,0.8257540464401245,0.12993179261684418,0.06165500357747078,-0.09641142934560776,-1.9785165786743164,0.0,0.0,0.0,0.0,0.0,0.0,0.0,0.0,0.0,0.549649715423584,-0.0007307760533876717,0.05715826898813248,-0.8334320783615112,0.0,-0.25,0.0,2621.429931640625,25.5625,-1.9705779552459717,6.179893262449391e-38,-0.0057942504063248634,0.0,2.0355675719598315e-20
138,0.4169999957084656,0.0,0.7841498851776123,-0.09650978446006775,-0.04231075197458267,-0.21184980869293213,0.7619419693946838,0.0234232135117054,0.07080700248479843,-0.10615712404251099,-1.9693671464920044,0.0,0.0,0.0,0.0,0.0,0.0,0.0,0.0,0.0,0.5535637140274048,0.00012012104707537219,0.06372199207544327,-0.8303601741790771,0.0,-0.5625,0.0,2621.41748046875,25.5625,-1.9296130394952615e+34,-8.109383489105384e+37,-8.961248592947915e-16,0.0,4.531819456454457e+25
138,0.4169999957084656,0.0,0.41834014654159546,-0.30660444498062134,-0.07851699739694595,0.13161103427410126,0.5077291131019592,-0.008042615838348866,0.07584085315465927,-0.11995183676481247,-1.957831621170044,0.0,0.0,0.0,0.0,0.0,0.0,0.0,0.0,0.0,0.5584025979042053,-0.002011764096096158,0.07082144170999527,-0.8265339136123657,0.0,-0.5625,0.0,2621.41748046875,25.5625,1.7827547164200874e-13,nan,2.512381248477428e-15,0.0,4.854334959406084e-25
138,0.4169999957084656,0.0,0.2413070648908615,-0.04580957815051079,-0.4038296043872833,-0.010278468020260334,0.28939634561538696,-0.3735589385032654,0.0892561599612236,-0.12348588556051254,-1.9487072229385376,0.0,0.0,0.0,0.0,0.0,0.0,0.0,0.0,0.0,0.5623495578765869,0.0022156168706715107,0.07601060718297958,-0.823390543460846,0.0,-0.5625,0.0,2621.41748046875,25.5625,3.354608355988929e-20,6.31432058195428e-35,-1.9694252699706225e+24,0.0,-1.9895584755341426e+37
138,0.4169999957084656,0.0,0.5399543642997742,-0.2752147614955902,-0.11333469301462173,0.07269962131977081,0.6114137172698975,-0.03194049000740051,0.09408608824014664,-0.12343675643205643,-1.939147710800171,0.0,0.0,0.0,0.0,0.0,0.0,0.0,0.0,0.0,0.5663388967514038,0.003855664748698473,0.07735653966665268,-0.8205198645591736,0.0,-0.5625,0.0,2621.41748046875,25.5625,-1.9705779552459717,6.179893262449391e-38,-0.0057942504063248634,0.0,2.0355675719598315e-20
138,0.4169999957084656,0.0,0.4712618291378021,-0.5469427704811096,0.3758983314037323,0.3139684498310089,0.5781793594360352,0.479223370552063,0.09232651442289352,-0.11998168379068375,-1.9240773916244507,0.0,0.0,0.0,0.0,0.0,0.0,0.0,0.0,0.0,0.5724791884422302,0.003540613455697894,0.07547357678413391,-0.8164253830909729,0.0,-0.4375,0.0,2621.422607421875,25.5625,-1.9296130394952615e+34,-8.109383489105384e+37,-8.961248592947915e-16,0.0,4.531819456454457e+25
138,0.4169999957084656,0.0,0.5526367425918579,-0.5772290825843811,-0.509122908115387,0.39973172545433044,0.7685099244117737,-0.38392457365989685,0.07021757960319519,-0.13274221122264862,-1.90373957157135,0.0,0.0,0.0,0.0,0.0,0.0,0.0,0.0,0.0,0.5804206728935242,-0.0099263247102499,0.07430599629878998,-0.8108533024787903,0.0,-0.4375,0.0,2621.422607421875,25.5625,1.7827547164200874e-13,nan,2.512381248477428e-15,0.0,4.854334959406084e-25
138,0.4169999957084656,0.0,0.13786925375461578,-0.7898558378219604,0.32066819071769714,0.700139582157135,0.31306615471839905,0.3968498408794403,0.03266027569770813,-0.1551331728696823,-1.878513216972351,0.0,0.0,0.0,0.0,0.0,0.0,0.0,0.0,0.0,0.5895532965660095,-0.0326019786298275,0.07214587926864624,-0.803834855556488,0.0,-0.4375,0.0,2621.422607421875,25.5625,3.354608355988929e-20,6.31432058195428e-35,-1.9694252699706225e+24,0.0,-1.9895584755341426e+37
138,0.4169999957084656,0.0,0.28362101316452026,-0.8514840006828308,0.23512454330921173,0.7155046463012695,0.47775718569755554,0.3471827805042267,0.05037635564804077,-0.15074874460697174,-1.8734006881713867,0.0,0.0,0.0,0.0,0.0,0.0,0.0,0.0,0.0,0.5921052694320679,-0.024366768077015877,0.07552402466535568,-0.8019384145736694,0.0,-0.4375,0.0,2621.422607421875,25.5625,-1.9705779552459717,6.179893262449391e-38,-0.0057942504063248634,0.0,2.0355675719598315e-20
138,0.4169999957084656,0.0,0.14026163518428802,-0.6839814186096191,-0.28026774525642395,0.6309155821800232,0.3628292977809906,-0.19064295291900635,0.05861259251832962,-0.15303847193717957,-1.8600467443466187,0.0,0.0,0.0,0.0,0.0,0.0,0.0,0.0,0.0,0.5976030826568604,-0.022258993238210678,0.07872005552053452,-0.7976024746894836,0.0,-0.5,0.0,2621.419921875,25.5625,-1.9296130394952615e+34,-8.109383489105384e+37,-8.961248592947915e-16,0.0,4.531819456454457e+25
138,0.4169999957084656,0.0,0.04638618975877762,-0.797299325466156,-0.2937193214893341,0.7731066346168518,0.2976669669151306,-0.19441485404968262,0.07537420094013214,-0.14794810116291046,-1.8519128561019897,0.0,0.0,0.0,0.0,0.0,0.0,0.0,0.0,0.0,0.6012240052223206,-0.014361320994794369,0.08160907030105591,-0.7947672009468079,0.0,-0.5,0.0,2621.419921875,25.5625,1.7827547164200874e-13,nan,2.512381248477428e-15,0.0,4.854334959406084e-25
138,0.4169999957084656,0.0,-0.0252787284553051,-0.8290268182754517,-0.03548625856637955,0.8057842254638672,0.189790740609169,0.062153760343790054,0.08607929944992065,-0.14582444727420807,-1.84085214138031,0.0,0.0,0.0,0.0,0.0,0.0,0.0,0.0,0.0,0.6058050990104675,-0.009914721362292767,0.08390510827302933,-0.7911088466644287,0.0,-0.5,0.0,2621.419921875,25.5625,3.354608355988929e-20,6.31432058195428e-35,-1.9694252699706225e+24,0.0,-1.9895584755341426e+37
138,0.4169999957084656,0.0,0.17390082776546478,-0.9224914312362671,0.07446476072072983,0.8357557654380798,0.37879255414009094,0.21163666248321533,0.09577994048595428,-0.14396636188030243,-1.8308318853378296,0.0,0.0,0.0,0.0,0.0,0.0,0.0,0.0,0.0,0.609912633895874,-0.005927302874624729,0.08605501800775528,-0.7877545952796936,0.0,-0.5,0.0,2621.419921875,25.5625,-1.9705779552459717,6.179893262449391e-38,-0.0057942504063248634,0.0,2.0355675719598315e-20
138,0.4169999957084656,0.0,-0.011263957247138023,-0.8096016049385071,-0.20710377395153046,0.805690586566925,0.20139046013355255,-0.09362701326608658,0.10890883952379227,-0.1369258612394333,-1.8174216747283936,0.0,0.0,0.0,0.0,0.0,0.0,0.0,0.0,0.0,0.6153477430343628,0.0008341582142747939,0.08725692331790924,-0.7834054231643677,0.0,-0.1875,0.0,2621.4326171875,25.5625,-1.9296130394952615e+34,-8.109383489105384e+37,-8.961248592947915e-16,0.0,4.531819456454457e+25
138,0.4169999957084656,0.0,-0.08183832466602325,-0.9644027948379517,-0.631538450717926,1.0259252786636353,0.2145082652568817,-0.48687979578971863,0.12048233300447464,-0.13921813666820526,-1.8056968450546265,0.0,0.0,0.0,0.0,0.0,0.0,0.0,0.0,0.0,0.6200402975082397,0.004151077941060066,0.09170550853013992,-0.7791754603385925,0.0,-0.1875,0.0,2621.4326171875,25.5625,1.7827547164200874e-13,nan,2.512381248477428e-15,0.0,4.854334959406084e-25
138,0.4169999957084656,0.0,0.04668573662638664,-1.3595553636550903,0.7489413619041443,1.2163220643997192,0.22207532823085785,0.9395133852958679,0.12086918205022812,-0.13181039690971375,-1.7918411493301392,0.0,0.0,0.0,0.0,0.0,0.0,0.0,0.0,0.0,0.6254087090492249,0.005983017385005951,0.08898123353719711,-0.7751786112785339,0.0,-0.1875,0.0,2621.4326171875,25.5625,3.354608355988929e-20,6.31432058195428e-35,-1.9694252699706225e+24,0.0,-1.9895584755341426e+37
138,0.4169999957084656,0.0,0.16737163066864014,-1.3537501096725464,0.40734097361564636,1.2276536226272583,0.36385324597358704,0.6221104860305786,0.12942592799663544,-0.12803879380226135,-1.7764695882797241,0.0,0.0,0.0,0.0,0.0,0.0,0.0,0.0,0.0,0.6313804388046265,0.00980691984295845,0.09024635702371597,-0.7701359987258911,0.0,-0.1875,0.0,2621.4326171875,25.5625,-1.9705779552459717,6.179893262449391e-38,-0.0057942504063248634,0.0,2.0355675719598315e-20
138,0.4169999957084656,0.0,-0.0263068787753582,-1.3800941705703735,-0.1486063450574875,1.3638347387313843,0.23388253152370453,0.11250262707471848,0.16870415210723877,-0.12872114777565002,-1.7693170309066772,0.0,0.0,0.0,0.0,0.0,0.0,0.0,0.0,0.0,0.6341838240623474,0.02444835938513279,0.10285210609436035,-0.7659152150154114,0.0,-0.1875,0.0,2621.4326171875,25.5625,-1.9296130394952615e+34,-8.109383489105384e+37,-8.961248592947915e-16,0.0,4.531819456454457e+25
138,0.4169999957084656,0.0,-0.20017856359481812,-1.3518316745758057,-0.03378394991159439,1.3408955335617065,0.035105470567941666,0.2634322941303253,0.21412120759487152,-0.12480376660823822,-1.7673128843307495,0.0,0.0,0.0,0.0,0.0,0.0,0.0,0.0,0.0,0.6346180438995361,0.04311522841453552,0.1155834048986435,-0.7629108428955078,0.0,-0.1875,0.0,2621.4326171875,25.5625,1.7827547164200874e-13,nan,2.512381248477428e-15,0.0,4.854334959406084e-25
138,0.4169999957084656,0.0,-0.18264591693878174,-1.2349772453308105,-0.5024977326393127,1.3349484205245972,0.07109715044498444,-0.1544640064239502,0.2625472843647003,-0.11406318098306656,-1.7601370811462402,0.0,0.0,0.0,0.0,0.0,0.0,0.0,0.0,0.0,0.6363379955291748,0.0647270604968071,0.12681591510772705,-0.7581514120101929,0.0,-0.1875,0.0,2621.4326171875,25.5625,3.354608355988929e-20,6.31432058195428e-35,-1.9694252699706225e+24,0.0,-1.9895584755341426e+37
138,0.4169999957084656,0.0,0.11485166102647781,-1.3577176332473755,0.489376038312912,1.097516655921936,0.259858101606369,0.907728910446167,0.31681859493255615,-0.10684443265199661,-1.7501219511032104,0.0,0.0,0.0,0.0,0.0,0.0,0.0,0.0,0.0,0.6384847164154053,0.08711611479520798,0.14143766462802887,-0.7514883875846863,0.0,-0.1875,0.0,2621.4326171875,25.5625,-1.9705779552459717,6.179893262449391e-38,-0.0057942504063248634,0.0,2.0355675719598315e-20
138,0.4169999957084656,0.0,0.1340693086385727,-1.317090630531311,-0.6604366898536682,1.4249902963638306,0.37421223521232605,-0.134942889213562,0.3569245934486389,-0.10515902191400528,-1.7431639432907104,0.0,0.0,0.0,0.0,0.0,0.0,0.0,0.0,0.0,0.639656662940979,0.10238669067621231,0.1536792665719986,-0.7461437582969666,0.0,-0.1875,0.0,2621.4326171875,25.5625,-1.9296130394952615e+34,-8.109383489105384e+37,-8.961248592947915e-16,0.0,4.531819456454457e+25
138,0.4169999957084656,0.0,-0.18136586248874664,-1.134688377380371,-1.2268962860107422,1.454740047454834,0.061105795204639435,-0.8400208950042725,0.2935739755630493,-0.09937166422605515,-1.7096827030181885,0.0,0.0,0.0,0.0,0.0,0.0,0.0,0.0,0.0,0.653956413269043,0.0779663473367691,0.13294602930545807,-0.7406612634658813,0.0,-0.1875,0.0,2621.4326171875,25.5625,1.7827547164200874e-13,nan,2.512381248477428e-15,0.0,4.854334959406084e-25
138,0.4169999957084656,0.0,-0.08525839447975159,-1.537684679031372,0.570222795009613,1.5018583536148071,-0.031038302928209305,0.6635574102401733,0.061058059334754944,-0.10648126900196075,-1.6519412994384766,0.0,0.0,0.0,0.0,0.0,0.0,0.0,0.0,0.0,0.677759051322937,-0.013644869439303875,0.05976741388440132,-0.7327179908752441,0.0,-0.1875,0.0,2621.4326171875,25.5625,3.354608355988929e-20,6.31432058195428e-35,-1.9694252699706225e+24,0.0,-1.9895584755341426e+37
138,0.4169999957084656,0.0,-0.05099580064415932,-1.4176563024520874,-0.2213917225599289,1.4053966999053955,0.04788334667682648,-0.2896476984024048,-0.05077403411269188,-0.10641562193632126,-1.6186295747756958,0.0,0.0,0.0,0.0,0.0,0.0,0.0,0.0,0.0,0.6878159046173096,-0.055031392723321915,0.020991535857319832,-0.7234856486320496,0.0,-0.1875,0.0,2621.4326171875,25.5625,-1.9705779552459717,6.179893262449391e-38,-0.0057942504063248634,0.0,2.0355675719598315e-20
138,0.4169999957084656,0.0,-0.09674446284770966,-1.6907891035079956,-0.5280161499977112,1.6195753812789917,0.013868208974599838,-0.7236422300338745,-0.11639229208230972,-0.10719884932041168,-1.5903676748275757,0.0,0.0,0.0,0.0,0.0,0.0,0.0,0.0,0.0,0.6957365870475769,-0.07891488820314407,-0.0024786009453237057,-0.7139385938644409,0.0,-0.1875,0.0,2621.4326171875,25.5625,-1.9296130394952615e+34,-8.109383489105384e+37,-8.961248592947915e-16,0.0,4.531819456454457e+25
138,0.4169999957084656,0.0,-0.05097788944840431,-1.6037620306015015,-0.21631817519664764,1.556411862373352,-0.0025159509386867285,-0.4460671544075012,-0.14360502362251282,-0.0991787388920784,-1.5734810829162598,0.0,0.0,0.0,0.0,0.0,0.0,0.0,0.0,0.0,0.700950562953949,-0.08564744144678116,-0.01559118926525116,-0.7078709006309509,0.0,-0.1875,0.0,2621.4326171875,25.5625,1.7827547164200874e-13,nan,2.512381248477428e-15,0.0,4.854334959406084e-25
138,0.4169999957084656,0.0,-0.19463323056697845,-1.2895891666412354,-0.44825080037117004,1.2147291898727417,-0.14682362973690033,-0.6361556053161621,-0.13590361177921295,-0.09899423271417618,-1.5596619844436646,0.0,0.0,0.0,0.0,0.0,0.0,0.0,0.0,0.0,0.7061572670936584,-0.0827842578291893,-0.013510135933756828,-0.7030629515647888,0.0,-0.625,0.0,2621.4150390625,25.5625,3.354608355988929e-20,6.31432058195428e-35,-1.9694252699706225e+24,0.0,-1.9895584755341426e+37
138,0.4169999957084656,0.0,-0.01563744992017746,-1.6578096151351929,-0.11748889833688736,1.6267528533935547,-0.02500739134848118,-0.33968105912208557,-0.1326494961977005,-0.09818492829799652,-1.5451252460479736,0.0,0.0,0.0,0.0,0.0,0.0,0.0,0.0,0.0,0.7114158272743225,-0.08126816898584366,-0.01322899665683508,-0.6979250907897949,0.0,-0.625,0.0,2621.4150390625,25.5625,-1.9705779552459717,6.179893262449391e-38,-0.0057942504063248634,0.0,2.0355675719598315e-20
138,0.4169999957084656,0.0,-0.024873284623026848,-1.4149284362792969,-0.04075149446725845,1.3968567848205566,-0.05911380052566528,-0.2226293385028839,-0.1245361864566803,-0.09603893011808395,-1.5316777229309082,0.0,0.0,0.0,0.0,0.0,0.0,0.0,0.0,0.0,0.7165014147758484,-0.07761518657207489,-0.011595526710152626,-0.6931511163711548,0.0,-0.625,0.0,2621.4150390625,25.5625,-1.9296130394952615e+34,-8.109383489105384e+37,-8.961248592947915e-16,0.0,4.531819456454457e+25
138,0.4169999957084656,0.0,0.06736844778060913,-1.4484939575195312,-0.09426883608102798,1.428361177444458,0.016867412254214287,-0.26650434732437134,-0.11981672048568726,-0.09344953298568726,-1.5187519788742065,0.0,0.0,0.0,0.0,0.0,0.0,0.0,0.0,0.0,0.7212461829185486,-0.07499019801616669,-0.011277258396148682,-0.6885092258453369,0.0,-0.625,0.0,2621.4150390625,25.5625,1.7827547164200874e-13,nan,2.512381248477428e-15,0.0,4.854334959406084e-25
138,0.4169999957084656,0.0,0.04536544159054756,-1.5270023345947266,-0.3305950462818146,1.4763610363006592,-0.011231995187699795,-0.513105034828186,-0.11930933594703674,-0.09128226339817047,-1.5031484365463257,0.0,0.0,0.0,0.0,0.0,0.0,0.0,0.0,0.0,0.7266952991485596,-0.07394029945135117,-0.012416647747159004,-0.6828498244285583,0.0,-0.4375,0.0,2621.422607421875,25.5625,3.354608355988929e-20,6.31432058195428e-35,-1.9694252699706225e+24,0.0,-1.9895584755341426e+37
138,0.4169999957084656,0.0,-0.053188178688287735,-1.4710427522659302,-0.2574358284473419,1.4246089458465576,-0.13350604474544525,-0.4309238791465759,-0.11060667783021927,-0.08968378603458405,-1.490119218826294,0.0,0.0,0.0,0.0,0.0,0.0,0.0,0.0,0.0,0.7315027713775635,-0.07033926248550415,-0.010242483578622341,-0.6781168580055237,0.0,-0.4375,0.0,2621.422607421875,25.5625,-1.9705779552459717,6.179893262449391e-38,-0.0057942504063248634,0.0,2.0355675719598315e-20
138,0.4169999957084656,0.0,-0.04283575341105461,-1.6267353296279907,-0.061978377401828766,1.6033105850219727,-0.17792415618896484,-0.22279112040996552,-0.09078599512577057,-0.07828200608491898,-1.4771249294281006,0.0,0.0,0.0,0.0,0.0,0.0,0.0,0.0,0.0,0.7369109988212585,-0.059430960565805435,-0.007211436051875353,-0.6733271479606628,0.0,-0.4375,0.0,2621.422607421875,25.5625,-1.9296130394952615e+34,-8.109383489105384e+37,-8.961248592947915e-16,0.0,4.531819456454457e+25
138,0.4169999957084656,0.0,0.1198171079158783,-1.529294490814209,-0.028142966330051422,1.5283399820327759,-0.03350449725985527,-0.13001267611980438,-0.06463555246591568,-0.07526223361492157,-1.464451551437378,0.0,0.0,0.0,0.0,0.0,0.0,0.0,0.0,0.0,0.7419577836990356,-0.04955081641674042,0.0011249608360230923,-0.668605625629425,0.0,-0.4375,0.0,2621.422607421875,25.5625,1.7827547164200874e-13,nan,2.512381248477428e-15,0.0,4.854334959406084e-25
138,0.4169999957084656,0.0,-0.027074338868260384,-1.4236500263214111,-0.03254608064889908,1.4076019525527954,-0.19252608716487885,-0.10063233226537704,-0.03953878581523895,-0.06328186392784119,-1.449946403503418,0.0,0.0,0.0,0.0,0.0,0.0,0.0,0.0,0.0,0.7475783824920654,-0.03677712753415108,0.006184470374137163,-0.6631191968917847,0.0,-0.4375,0.0,2621.422607421875,25.5625,3.354608355988929e-20,6.31432058195428e-35,-1.9694252699706225e+24,0.0,-1.9895584755341426e+37
138,0.4169999957084656,0.0,0.3114764094352722,-3.2834627628326416,-0.25148776173591614,3.282820463180542,-0.11460817605257034,-0.3887941539287567,-0.039368096739053726,-0.06170405074954033,-1.4342528581619263,0.0,0.0,0.0,0.0,0.0,0.0,0.0,0.0,0.0,0.7527905702590942,-0.03617464378476143,0.005441525485366583,-0.6572363972663879,0.0,-0.4375,0.0,2621.422607421875,25.5625,-1.9705779552459717,6.179893262449391e-38,-0.0057942504063248634,0.0,2.0355675719598315e-20
138,0.4169999957084656,0.0,-0.048195596784353256,-1.4105244874954224,0.3184785544872284,1.3973665237426758,-0.27349263429641724,0.2566409409046173,-0.03471522033214569,-0.050572413951158524,-1.419548511505127,0.0,0.0,0.0,0.0,0.0,0.0,0.0,0.0,0.0,0.7578631639480591,-0.030481969937682152,0.003312678774818778,-0.6516862511634827,0.0,-0.4375,0.0,2621.422607421875,25.5625,-1.9296130394952615e+34,-8.109383489105384e+37,-8.961248592947915e-16,0.0,4.531819456454457e+25
138,0.4169999957084656,0.0,-0.004792883992195129,-1.279447078704834,-0.31716635823249817,1.252968192100525,-0.2008827179670334,-0.3567768931388855,-0.02306344173848629,-0.05063989385962486,-1.4027775526046753,0.0,0.0,0.0,0.0,0.0,0.0,0.0,0.0,0.0,0.7634595036506653,-0.026778319850564003,0.007528897374868393,-0.6452498435974121,0.0,-0.4375,0.0,2621.422607421875,25.5625,1.7827547164200874e-13,nan,2.512381248477428e-15,0.0,4.854334959406084e-25
138,0.4169999957084656,0.0,-0.02894497476518154,-1.242013692855835,-0.5671520829200745,1.2081786394119263,-0.2274198830127716,-0.5946844816207886,-0.01223880983889103,-0.05232134088873863,-1.3847297430038452,0.0,0.0,0.0,0.0,0.0,0.0,0.0,0.0,0.0,0.7693552374839783,-0.024039149284362793,0.011988895945250988,-0.638249397277832,0.0,-0.3125,0.0,2621.427490234375,25.5625,3.354608355988929e-20,6.31432058195428e-35,-1.9694252699706225e+24,0.0,-1.9895584755341426e+37
138,0.4169999957084656,0.0,-0.05230528488755226,-1.2756547927856445,-0.0769071951508522,1.2375596761703491,-0.3041064739227295,-0.10901010781526566,-0.014370541088283062,-0.04668183624744415,-1.367432713508606,0.0,0.0,0.0,0.0,0.0,0.0,0.0,0.0,0.0,0.774890124797821,-0.022629927843809128,0.009173471480607986,-0.6316173672676086,0.0,-0.3125,0.0,2621.427490234375,25.5625,-1.9705779552459717,6.179893262449391e-38,-0.0057942504063248634,0.0,2.0355675719598315e-20
138,0.4169999957084656,0.0,0.04724188521504402,-1.0612150430679321,-0.4098663628101349,1.0430902242660522,-0.1651879996061325,-0.42550328373908997,-0.007104594726115465,-0.04693689942359924,-1.3512868881225586,0.0,0.0,0.0,0.0,0.0,0.0,0.0,0.0,0.0,0.7800294160842896,-0.02053166553378105,0.011904538609087467,-0.6252857446670532,0.0,-0.3125,0.0,2621.427490234375,25.5625,-1.9296130394952615e+34,-8.109383489105384e+37,-8.961248592947915e-16,0.0,4.531819456454457e+25
138,0.4169999957084656,0.0,-0.21777312457561493,-0.945685088634491,0.06110187619924545,0.867207407951355,-0.4381483793258667,0.03795113414525986,-0.0067393542267382145,-0.039578624069690704,-1.3308145999908447,0.0,0.0,0.0,0.0,0.0,0.0,0.0,0.0,0.0,0.7864624261856079,-0.017646364867687225,0.009566305205225945,-0.6173050999641418,0.0,0.125,0.0,0.004999999888241291,25.5625,1.7827547164200874e-13,nan,2.512381248477428e-15,0.0,4.854334959406084e-25
138,0.4169999957084656,0.0,-0.03455182537436485,-0.9977189302444458,0.11096664518117905,0.9554725885391235,-0.2923044264316559,0.10277925431728363,0.0037430482916533947,-0.04054461047053337,-1.3128725290298462,0.0,0.0,0.0,0.0,0.0,0.0,0.0,0.0,0.0,0.7920278310775757,-0.014916005544364452,0.013853490352630615,-0.6101385354995728,0.0,0.125,0.0,0.004999999888241291,25.5625,3.354608355988929e-20,6.31432058195428e-35,-1.9694252699706225e+24,0.0,-1.9895584755341426e+37
138,0.4169999957084656,0.0,-0.15274584293365479,-0.7557556629180908,-0.061790503561496735,0.685461163520813,-0.3526550233364105,-0.06389845907688141,0.01429129671305418,-0.03364517167210579,-1.292325496673584,0.0,0.0,0.0,0.0,0.0,0.0,0.0,0.0,0.0,0.7983357310295105,-0.009128157049417496,0.0158328115940094,-0.6019280552864075,0.0,0.125,0.0,0.004999999888241291,25.5625,-1.9705779552459717,6.179893262449391e-38,-0.0057942504063248634,0.0,2.0355675719598315e-20
138,0.4169999957084656,0.0,0.02735120616853237,-1.267187476158142,-0.4250517189502716,1.2299689054489136,-0.32903897762298584,-0.40750518441200256,0.022984720766544342,-0.03166191652417183,-1.2761855125427246,0.0,0.0,0.0,0.0,0.0,0.0,0.0,0.0,0.0,0.8031845688819885,-0.005869914311915636,0.018658610060811043,-0.59540194272995,0.0,0.125,0.0,0.004999999888241291,25.5625,-1.9296130394952615e+34,-8.109383489105384e+37,-8.961248592947915e-16,0.0,4.531819456454457e+25
138,0.4169999957084656,0.0,0.14771665632724762,-1.3198570013046265,0.16751570999622345,1.2952982187271118,-0.27014869451522827,0.20272038877010345,0.031860869377851486,-0.02301258035004139,-1.2581408023834229,0.0,0.0,0.0,0.0,0.0,0.0,0.0,0.0,0.0,0.8085230588912964,7.011589332250878e-05,0.01964879408478737,-0.5881290435791016,0.0,-0.4375,0.0,2621.422607421875,25.5625,1.7827547164200874e-13,nan,2.512381248477428e-15,0.0,4.854334959406084e-25
138,0.4169999957084656,0.0,-0.01737302541732788,-0.8630176186561584,0.0837077721953392,0.8052038550376892,-0.2982512414455414,0.12160784751176834,0.0500061921775341,-0.008407121524214745,-1.2394018173217773,0.0,0.0,0.0,0.0,0.0,0.0,0.0,0.0,0.0,0.8138481974601746,0.011099185794591904,0.02279222197830677,-0.580517053604126,0.0,-0.4375,0.0,2621.422607421875,25.5625,3.354608355988929e-20,6.31432058195428e-35,-1.9694252699706225e+24,0.0,-1.9895584755341426e+37
138,0.4169999957084656,0.0,0.1226513460278511,-1.0914967060089111,-0.3141031563282013,1.0830938816070557,-0.2563242018222809,-0.2573944926261902,0.053466036915779114,-0.003151573007926345,-1.2225947380065918,0.0,0.0,0.0,0.0,0.0,0.0,0.0,0.0,0.0,0.8186310529708862,0.014051162637770176,0.022793304175138474,-0.5736876130104065,0.0,-0.4375,0.0,2621.422607421875,25.5625,-1.9705779552459717,6.179893262449391e-38,-0.0057942504063248634,0.0,2.0355675719598315e-20
138,0.4169999957084656,0.0,0.21646538376808167,-1.0906016826629639,0.07721325010061264,1.0918244123458862,-0.1854461282491684,0.1254531890153885,0.04261353984475136,0.008685227483510971,-1.2063014507293701,0.0,0.0,0.0,0.0,0.0,0.0,0.0,0.0,0.0,0.8233016729354858,0.015660610049962997,0.015083100646734238,-0.5671796798706055,0.0,-0.4375,0.0,2621.422607421875,25.5625,-1.9296130394952615e+34,-8.109383489105384e+37,-8.961248592947915e-16,0.0,4.531819456454457e+25
138,0.4169999957084656,0.0,0.051110509783029556,-0.8846258521080017,-0.21420006453990936,0.8465197086334229,-0.2889520823955536,-0.17593739926815033,0.03808363899588585,0.021466854959726334,-1.1854968070983887,0.0,0.0,0.0,0.0,0.0,0.0,0.0,0.0,0.0,0.8290926218032837,0.019536936655640602,0.009796722792088985,-0.5586764216423035,0.0,-0.3125,0.0,2621.427490234375,25.5625,1.7827547164200874e-13,nan,2.512381248477428e-15,0.0,4.854334959406084e-25
138,0.4169999957084656,0.0,0.053484369069337845,-0.9466367959976196,-0.07784561067819595,0.8912766575813293,-0.3292437791824341,-0.047444116324186325,0.020650621503591537,0.036579813808202744,-1.1619151830673218,0.0,0.0,0.0,0.0,0.0,0.0,0.0,0.0,0.0,0.8356459736824036,0.02095324918627739,-0.0014070621691644192,-0.548859179019928,0.0,-0.3125,0.0,2621.427490234375,25.5625,3.354608355988929e-20,6.31432058195428e-35,-1.9694252699706225e+24,0.0,-1.9895584755341426e+37
138,0.4169999957084656,0.0,-1.7783888578414917,-1.3838187456130981,-0.48038581013679504,0.5342599153518677,-2.2079107761383057,-0.3847038149833679,0.011311527341604233,0.04076683893799782,-1.1464439630508423,0.0,0.0,0.0,0.0,0.0,0.0,0.0,0.0,0.0,0.8399038314819336,0.02019047550857067,-0.006303048692643642,-0.5423150062561035,0.0,-0.3125,0.0,2621.427490234375,25.5625,-1.9705779552459717,6.179893262449391e-38,-0.0057942504063248634,0.0,2.0355675719598315e-20
138,0.4169999957084656,0.0,0.09468661993741989,-0.7985237836837769,-0.20016007125377655,0.7669979333877563,-0.2582521438598633,-0.17798326909542084,0.01748763956129551,0.034457121044397354,-1.1340528726577759,0.0,0.0,0.0,0.0,0.0,0.0,0.0,0.0,0.0,0.8432599306106567,0.019226783886551857,-0.0018787882290780544,-0.5371507406234741,0.0,-0.4375,0.0,2621.422607421875,25.5625,-1.9296130394952615e+34,-8.109383489105384e+37,-8.961248592947915e-16,0.0,4.531819456454457e+25
138,0.4169999957084656,0.0,0.22580164670944214,-1.4267269372940063,-0.02976325899362564,1.3821684122085571,-0.42007479071617126,0.023082640022039413,0.031201910227537155,0.023124806582927704,-1.1184487342834473,0.0,0.0,0.0,0.0,0.0,0.0,0.0,0.0,0.0,0.8474076390266418,0.01807551644742489,0.007089771796017885,-0.5305794477462769,0.0,-0.4375,0.0,2621.422607421875,25.5625,1.7827547164200874e-13,nan,2.512381248477428e-15,0.0,4.854334959406084e-25
138,0.4169999957084656,0.0,0.012274938635528088,-0.469149649143219,-0.9356651902198792,0.5040028691291809,-0.2111232876777649,-0.8928105235099792,0.08899366855621338,0.007664250675588846,-1.0943009853363037,0.0,0.0,0.0,0.0,0.0,0.0,0.0,0.0,0.0,0.8530665040016174,0.026411443948745728,0.03599641099572182,-0.5198804140090942,0.0,-0.4375,0.0,2621.422607421875,25.5625,3.354608355988929e-20,6.31432058195428e-35,-1.9694252699706225e+24,0.0,-1.9895584755341426e+37
138,0.4169999957084656,0.0,-0.046301260590553284,-0.9481630921363831,-0.26050475239753723,0.8358780145645142,-0.4752216041088104,-0.21089129149913788,0.05975322425365448,0.00014848020509816706,-1.0953246355056763,0.0,0.0,0.0,0.0,0.0,0.0,0.0,0.0,0.0,0.8533581495285034,0.01561764720827341,0.025464659556746483,-0.5204601287841797,0.0,-0.4375,0.0,2621.422607421875,25.5625,-1.9705779552459717,6.179893262449391e-38,-0.0057942504063248634,0.0,2.0355675719598315e-20
138,0.4169999957084656,0.0,0.025066619738936424,-0.6380554437637329,0.4446963965892792,0.5504413843154907,-0.2764948308467865,0.4754497706890106,0.054785799235105515,-0.0003540142788551748,-1.0839941501617432,0.0,0.0,0.0,0.0,0.0,0.0,0.0,0.0,0.0,0.8563576340675354,0.013977279886603355,0.023555394262075424,-0.5156479477882385,0.0,-0.3125,0.0,2621.427490234375,25.5625,-1.9296130394952615e+34,-8.109383489105384e+37,-8.961248592947915e-16,0.0,4.531819456454457e+25
138,0.4169999957084656,0.0,0.01813645288348198,-0.7672753930091858,0.05330558866262436,0.677791178226471,-0.35378625988960266,0.08547605574131012,0.059001997113227844,-0.022562438622117043,-1.0710371732711792,0.0,0.0,0.0,0.0,0.0,0.0,0.0,0.0,0.0,0.8597413301467896,0.005353474989533424,0.031119802966713905,-0.5097442865371704,0.0,-0.3125,0.0,2621.427490234375,25.5625,1.7827547164200874e-13,nan,2.512381248477428e-15,0.0,4.854334959406084e-25
138,0.4169999957084656,0.0,-0.3349321186542511,-0.9813334941864014,0.4712781608104706,0.645475447177887,-0.792996346950531,0.5017913579940796,0.07847760617733002,-0.027606483548879623,-1.049943447113037,0.0,0.0,0.0,0.0,0.0,0.0,0.0,0.0,0.0,0.8648574352264404,0.007724351715296507,0.04085548222064972,-0.5002843737602234,0.0,-0.3125,0.0,2621.427490234375,25.5625,3.354608355988929e-20,6.31432058195428e-35,-1.9694252699706225e+24,0.0,-1.9895584755341426e+37
138,0.4169999957084656,0.0,0.10963165014982224,-0.49713921546936035,-0.4710083305835724,0.52438884973526,-0.14443595707416534,-0.43030428886413574,0.0925571396946907,-0.03894941508769989,-1.0317935943603516,0.0,0.0,0.0,0.0,0.0,0.0,0.0,0.0,0.0,0.869195282459259,0.0058967312797904015,0.04982985183596611,-0.4919077455997467,0.0,-0.3125,0.0,2621.427490234375,25.5625,-1.9705779552459717,6.179893262449391e-38,-0.0057942504063248634,0.0,2.0355675719598315e-20
138,0.4169999957084656,0.0,0.14823438227176666,-0.6434454917907715,0.12542720139026642,0.611656665802002,-0.21673345565795898,0.17499327659606934,0.09046388417482376,-0.030048901215195656,-1.0185071229934692,0.0,0.0,0.0,0.0,0.0,0.0,0.0,0.0,0.0,0.872444748878479,0.008937805891036987,0.04679165408015251,-0.48637691140174866,0.0,0.25,0.0,0.009999999776482582,25.5625,-1.9296130394952615e+34,-8.109383489105384e+37,-8.961248592947915e-16,0.0,4.531819456454457e+25
138,0.4169999957084656,0.0,0.609969973564148,-0.6034828424453735,-0.4612636864185333,0.8758071660995483,0.2053108513355255,-0.3739151954650879,0.09620679914951324,-0.024754853919148445,-1.010504126548767,0.0,0.0,0.0,0.0,0.0,0.0,0.0,0.0,0.0,0.8742577433586121,0.0124546829611063,0.04805763438344002,-0.4829082787036896,0.0,0.25,0.0,0.009999999776482582,25.5625,1.7827547164200874e-13,nan,2.512381248477428e-15,0.0,4.854334959406084e-25
138,0.4169999957084656,0.0,0.609773576259613,-0.7017320394515991,-2.306210994720459,1.1234380006790161,0.16640974581241608,-2.2120018005371094,0.08994494378566742,-0.014858967624604702,-0.9995285272598267,0.0,0.0,0.0,0.0,0.0,0.0,0.0,0.0,0.0,0.8769403100013733,0.015029734931886196,0.043014612048864365,-0.4784257411956787,0.0,0.25,0.0,0.009999999776482582,25.5625,3.354608355988929e-20,6.31432058195428e-35,-1.9694252699706225e+24,0.0,-1.9895584755341426e+37
138,0.4169999957084656,0.0,0.13367003202438354,-0.10671006143093109,0.008751831017434597,0.16212783753871918,0.05094226822257042,0.02121969684958458,0.07381973415613174,-0.008894076570868492,-0.9772828817367554,0.0,0.0,0.0,0.0,0.0,0.0,0.0,0.0,0.0,0.8824346661567688,0.013398541137576103,0.03466889262199402,-0.46895554661750793,0.0,0.25,0.0,0.009999999776482582,25.5625,-1.9705779552459717,6.179893262449391e-38,-0.0057942504063248634,0.0,2.0355675719598315e-20
138,0.4169999957084656,0.0,0.1360670030117035,-0.4583835005760193,-0.1745024174451828,0.4627794027328491,-0.1501188576221466,-0.14958637952804565,0.061974942684173584,-0.02284022979438305,-0.9554322361946106,0.0,0.0,0.0,0.0,0.0,0.0,0.0,0.0,0.0,0.8877220749855042,0.004106935113668442,0.03276002034544945,-0.459185391664505,0.0,0.375,0.0,0.014999999664723873,25.5625,-1.9296130394952615e+34,-8.109383489105384e+37,-8.961248592947915e-16,0.0,4.531819456454457e+25
138,0.4169999957084656,0.0,-0.07234116643667221,-0.23679956793785095,0.3556518256664276,0.12435998767614365,-0.20905497670173645,0.3586406409740448,0.06774706393480301,-0.03078133426606655,-0.941085696220398,0.0,0.0,0.0,0.0,0.0,0.0,0.0,0.0,0.0,0.8909382224082947,0.0016429764218628407,0.0371563695371151,-0.45259004831314087,0.0,0.375,0.0,0.014999999664723873,25.5625,1.7827547164200874e-13,nan,2.512381248477428e-15,0.0,4.854334959406084e-25
138,0.4169999957084656,0.0,0.06311988085508347,-0.5487316250801086,-0.283237487077713,0.49952664971351624,-0.26758021116256714,-0.2533409297466278,0.08191151916980743,-0.037326596677303314,-0.9312599897384644,0.0,0.0,0.0,0.0,0.0,0.0,0.0,0.0,0.0,0.8929734826087952,0.0017189278732985258,0.044951122254133224,-0.44784656167030334,0.0,0.375,0.0,0.014999999664723873,25.5625,3.354608355988929e-20,6.31432058195428e-35,-1.9694252699706225e+24,0.0,-1.9895584755341426e+37
138,0.4169999957084656,0.0,-0.17581912875175476,-0.2103361338376999,0.48003479838371277,0.02474554255604744,-0.2854444980621338,0.4727485477924347,0.07371797412633896,-0.03767899051308632,-0.9178900718688965,0.0,0.0,0.0,0.0,0.0,0.0,0.0,0.0,0.0,0.8960562944412231,-0.0005553512019105256,0.04137137159705162,-0.4419989287853241,0.0,0.375,0.0,0.014999999664723873,25.5625,-1.9705779552459717,6.179893262449391e-38,-0.0057942504063248634,0.0,2.0355675719598315e-20
138,0.4169999957084656,0.0,0.16716845333576202,-0.08992929011583328,-0.08219150453805923,0.18003664910793304,0.07902253419160843,-0.06426168233156204,0.08448129892349243,-0.03828046843409538,-0.9083847999572754,0.0,0.0,0.0,0.0,0.0,0.0,0.0,0.0,0.0,0.8980005979537964,0.0013404418714344501,0.04632950946688652,-0.4375370442867279,0.0,0.375,0.0,0.014999999664723873,25.5625,-1.9296130394952615e+34,-8.109383489105384e+37,-8.961248592947915e-16,0.0,4.531819456454457e+25
138,0.4169999957084656,0.0,0.051199451088905334,-0.17963525652885437,0.020688019692897797,0.17031805217266083,-0.07271740585565567,0.031961917877197266,0.08054222911596298,-0.035221509635448456,-0.9000566601753235,0.0,0.0,0.0,0.0,0.0,0.0,0.0,0.0,0.0,0.8998699188232422,0.0016665990697219968,0.04390012100338936,-0.43393081426620483,0.0,0.375,0.0,0.014999999664723873,25.5625,1.7827547164200874e-13,nan,2.512381248477428e-15,0.0,4.854334959406084e-25
138,0.4169999957084656,0.0,0.0826982855796814,-0.17082305252552032,0.041358910501003265,0.18106946349143982,-0.0443497933447361,0.05455658212304115,0.0809084102511406,-0.03739549592137337,-0.8952792882919312,0.0,0.0,0.0,0.0,0.0,0.0,0.0,0.0,0.0,0.9008999466896057,0.0006617446197196841,0.04453812167048454,-0.43172580003738403,0.0,0.375,0.0,0.014999999664723873,25.5625,3.354608355988929e-20,6.31432058195428e-35,-1.9694252699706225e+24,0.0,-1.9895584755341426e+37
138,0.4169999957084656,0.0,0.04026850685477257,-0.07088761776685715,-0.12175754457712173,0.08908455818891525,-0.008869501762092113,-0.11600188910961151,0.07295554876327515,-0.03880186378955841,-0.8895412087440491,0.0,0.0,0.0,0.0,0.0,0.0,0.0,0.0,0.0,0.9022399187088013,-0.0018123617628589272,0.0412566177546978,-0.4292433261871338,0.0,0.3125,0.0,0.012500000186264515,25.5625,-1.9705779552459717,6.179893262449391e-38,-0.0057942504063248634,0.0,2.0355675719598315e-20
138,0.4169999957084656,0.0,0.0907345563173294,-0.10543563216924667,-0.0323810949921608,0.14080467820167542,0.004091547802090645,-0.023557132109999657,0.06208251044154167,-0.03642485290765762,-0.8834282755851746,0.0,0.0,0.0,0.0,0.0,0.0,0.0,0.0,0.0,0.9036728143692017,-0.003189954673871398,0.03583429008722305,-0.4267001748085022,0.0,0.3125,0.0,0.012500000186264515,25.5625,-1.9296130394952615e+34,-8.109383489105384e+37,-8.961248592947915e-16,0.0,4.531819456454457e+25
138,0.4169999957084656,0.0,0.08908616006374359,-0.11946426331996918,-0.0620441809296608,0.15226534008979797,-0.005471640266478062,-0.05331451818346977,0.05958238244056702,-0.03764519840478897,-0.8798672556877136,0.0,0.0,0.0,0.0,0.0,0.0,0.0,0.0,0.0,0.9044533371925354,-0.004338295664638281,0.03495791554450989,-0.4251060485839844,0.0,0.3125,0.0,0.012500000186264515,25.5625,1.7827547164200874e-13,nan,2.512381248477428e-15,0.0,4.854334959406084e-25
138,0.4169999957084656,0.0,-0.01625596359372139,-0.15499092638492584,-0.014471092261373997,0.10914897173643112,-0.1114678755402565,-0.012525438331067562,0.05590538680553436,-0.03707421198487282,-0.874718427658081,0.0,0.0,0.0,0.0,0.0,0.0,0.0,0.0,0.0,0.9055797457695007,-0.0049488842487335205,0.03316187113523483,-0.42283955216407776,0.0,0.3125,0.0,0.012500000186264515,25.5625,3.354608355988929e-20,6.31432058195428e-35,-1.9694252699706225e+24,0.0,-1.9895584755341426e+37
138,0.4169999957084656,0.0,0.019600817933678627,-0.08744753152132034,-0.14293865859508514,0.08733490854501724,-0.03557970002293587,-0.1398891657590866,0.05587683245539665,-0.04190414771437645,-0.8699748516082764,0.0,0.0,0.0,0.0,0.0,0.0,0.0,0.0,0.0,0.9065654873847961,-0.007222888059914112,0.034152962267398834,-0.420609712600708,0.0,0.5,0.0,0.019999999552965164,25.5625,-1.9705779552459717,6.179893262449391e-38,-0.0057942504063248634,0.0,2.0355675719598315e-20
138,0.4169999957084656,0.0,0.11867951601743698,-0.019539562985301018,0.1953992396593094,0.08136934787034988,0.06925234198570251,0.20305120944976807,0.05306360870599747,-0.04160662740468979,-0.8648539781570435,0.0,0.0,0.0,0.0,0.0,0.0,0.0,0.0,0.0,0.9076630473136902,-0.007765145972371101,0.03279607370495796,-0.4183347821235657,0.0,0.5,0.0,0.019999999552965164,25.5625,-1.9296130394952615e+34,-8.109383489105384e+37,-8.961248592947915e-16,0.0,4.531819456454457e+25
138,0.4169999957084656,0.0,0.006558933295309544,-0.041481468826532364,-0.15818600356578827,0.043961092829704285,-0.015720564872026443,-0.15686428546905518,0.05217423662543297,-0.04025448113679886,-0.8620324730873108,0.0,0.0,0.0,0.0,0.0,0.0,0.0,0.0,0.0,0.9082642793655396,-0.0073832557536661625,0.03209942206740379,-0.41708895564079285,0.0,0.5,0.0,0.019999999552965164,25.5625,1.7827547164200874e-13,nan,2.512381248477428e-15,0.0,4.854334959406084e-25
138,0.4169999957084656,0.0,0.1231275349855423,-0.06689122319221497,0.20441050827503204,0.12155147641897202,0.04184051975607872,0.21187753975391388,0.0461609922349453,-0.035848964005708694,-0.8580091595649719,0.0,0.0,0.0,0.0,0.0,0.0,0.0,0.0,0.0,0.9091603755950928,-0.0066965497098863125,0.028437355533242226,-0.4154103696346283,0.0,0.4375,0.0,0.017500000074505806,25.5625,3.354608355988929e-20,6.31432058195428e-35,-1.9694252699706225e+24,0.0,-1.9895584755341426e+37
138,0.4169999957084656,0.0,0.056062668561935425,-0.12578468024730682,-0.001868286170065403,0.13167338073253632,-0.040301162749528885,0.0024352150503546,0.04352607578039169,-0.03551940992474556,-0.8553749322891235,0.0,0.0,0.0,0.0,0.0,0.0,0.0,0.0,0.0,0.90972501039505,-0.007130795624107122,0.02716216817498207,-0.4142507314682007,0.0,0.4375,0.0,0.017500000074505806,25.5625,-1.9705779552459717,6.179893262449391e-38,-0.0057942504063248634,0.0,2.0355675719598315e-20
138,0.4169999957084656,0.0,0.1384110450744629,-0.07392542064189911,0.01241298671811819,0.14628227055072784,0.054844893515110016,0.019230445846915245,0.034746307879686356,-0.031289536505937576,-0.8515262007713318,0.0,0.0,0.0,0.0,0.0,0.0,0.0,0.0,0.0,0.9105836153030396,-0.0070710983127355576,0.02227974869310856,-0.4126538932323456,0.0,0.4375,0.0,0.017500000074505806,25.5625,-1.9296130394952615e+34,-8.109383489105384e+37,-8.961248592947915e-16,0.0,4.531819456454457e+25
138,0.4169999957084656,0.0,0.017013950273394585,-0.049345146864652634,-0.18938736617565155,0.055426064878702164,-0.01404708530753851,-0.1879415363073349,0.0379328690469265,-0.030854761600494385,-0.8488857746124268,0.0,0.0,0.0,0.0,0.0,0.0,0.0,0.0,0.0,0.911112904548645,-0.00624608201906085,0.023632263764739037,-0.41142189502716064,0.0,0.4375,0.0,0.017500000074505806,25.5625,1.7827547164200874e-13,nan,2.512381248477428e-15,0.0,4.854334959406084e-25
138,0.4169999957084656,0.0,0.04399798810482025,-0.04060068354010582,0.07640644162893295,0.0563877671957016,0.0035369587130844593,0.07892999798059464,0.04096640273928642,-0.03118855133652687,-0.8455928564071655,0.0,0.0,0.0,0.0,0.0,0.0,0.0,0.0,0.0,0.9117704033851624,-0.005814576055854559,0.025072945281863213,-0.40988343954086304,0.0,0.3125,0.0,0.012500000186264515,25.5625,3.354608355988929e-20,6.31432058195428e-35,-1.9694252699706225e+24,0.0,-1.9895584755341426e+37
138,0.4169999957084656,0.0,0.09884996712207794,-0.024046747013926506,-0.040646590292453766,0.08523702621459961,0.059122730046510696,-0.03522318974137306,0.041714146733284,-0.032469701021909714,-0.8446673154830933,0.0,0.0,0.0,0.0,0.0,0.0,0.0,0.0,0.0,0.9119515419006348,-0.006257047411054373,0.025673391297459602,-0.4094366133213043,0.0,0.3125,0.0,0.012500000186264515,25.5625,-1.9705779552459717,6.179893262449391e-38,-0.0057942504063248634,0.0,2.0355675719598315e-20
138,0.4169999957084656,0.0,0.09554803371429443,0.042949531227350235,-0.08311942964792252,0.0349472276866436,0.1024506613612175,-0.07851873338222504,0.04170989990234375,-0.03176180273294449,-0.8428409695625305,0.0,0.0,0.0,0.0,0.0,0.0,0.0,0.0,0.0,0.9123271107673645,-0.005958440247923136,0.025521107017993927,-0.4086126983165741,0.0,0.3125,0.0,0.012500000186264515,25.5625,-1.9296130394952615e+34,-8.109383489105384e+37,-8.961248592947915e-16,0.0,4.531819456454457e+25
138,0.4169999957084656,0.0,0.06353140622377396,-0.0024471187498420477,-0.2535562813282013,0.05537476763129234,0.053578443825244904,-0.24978971481323242,0.04453233629465103,-0.0311721283942461,-0.8420982360839844,0.0,0.0,0.0,0.0,0.0,0.0,0.0,0.0,0.0,0.9124617576599121,-0.0051218620501458645,0.02668583393096924,-0.4082489013671875,0.0,0.3125,0.0,0.012500000186264515,25.5625,1.7827547164200874e-13,nan,2.512381248477428e-15,0.0,4.854334959406084e-25
138,0.4169999957084656,0.0,0.08345963060855865,-0.015258491970598698,-0.11120609194040298,0.07177451252937317,0.05546160414814949,-0.10647651553153992,0.04327334836125374,-0.032097335904836655,-0.8407943844795227,0.0,0.0,0.0,0.0,0.0,0.0,0.0,0.0,0.0,0.912733793258667,-0.005818510428071022,0.026296688243746758,-0.4076564311981201,0.0,0.375,0.0,0.014999999664723873,25.5625,3.354608355988929e-20,6.31432058195428e-35,-1.9694252699706225e+24,0.0,-1.9895584755341426e+37
138,0.4169999957084656,0.0,0.034689538180828094,0.08515054732561111,0.08797737210988998,-0.04422447085380554,0.07985467463731766,0.08866319805383682,0.04609208554029465,-0.03239377588033676,-0.8395293951034546,0.0,0.0,0.0,0.0,0.0,0.0,0.0,0.0,0.0,0.912971019744873,-0.005395831540226936,0.027639662846922874,-0.40704143047332764,0.0,0.375,0.0,0.014999999664723873,25.5625,-1.9705779552459717,6.179893262449391e-38,-0.0057942504063248634,0.0,2.0355675719598315e-20
138,0.4169999957084656,0.0,0.026662098243832588,-0.09507384151220322,-0.08023551851511002,0.09201949834823608,-0.04134586453437805,-0.07752619683742523,0.04460931941866875,-0.031007977202534676,-0.8385841846466064,0.0,0.0,0.0,0.0,0.0,0.0,0.0,0.0,0.0,0.913177490234375,-0.00507811363786459,0.026678558439016342,-0.40664634108543396,0.0,0.375,0.0,0.014999999664723873,25.5625,-1.9296130394952615e+34,-8.109383489105384e+37,-8.961248592947915e-16,0.0,4.531819456454457e+25
138,0.4169999957084656,0.0,0.027294963598251343,-0.06606461107730865,0.10668178647756577,0.06268483400344849,-0.02742798626422882,0.10866742581129074,0.04307794198393822,-0.03169529139995575,-0.8370307087898254,0.0,0.0,0.0,0.0,0.0,0.0,0.0,0.0,0.0,0.9135017991065979,-0.0057240757159888744,0.02611486241221428,-0.40594565868377686,0.0,0.375,0.0,0.014999999664723873,25.5625,1.7827547164200874e-13,nan,2.512381248477428e-15,0.0,4.854334959406084e-25
138,0.4169999957084656,0.0,0.14476856589317322,0.03198034688830376,-0.04767707735300064,0.07552842050790787,0.13015930354595184,-0.04009252414107323,0.048061177134513855,-0.030933622270822525,-0.8360508680343628,0.0,0.0,0.0,0.0,0.0,0.0,0.0,0.0,0.0,0.9136663675308228,-0.004376986064016819,0.0282334852963686,-0.40544968843460083,0.0,0.5,0.0,0.019999999552965164,25.5,3.354608355988929e-20,6.31432058195428e-35,-1.9694252699706225e+24,0.0,-1.9895584755341426e+37
138,0.4169999957084656,0.0,0.1676311194896698,-0.021869415417313576,-0.2945566475391388,0.1423039436340332,0.11859890073537827,-0.2846473753452301,0.04681500419974327,-0.031217867508530617,-0.8355536460876465,0.0,0.0,0.0,0.0,0.0,0.0,0.0,0.0,0.0,0.9137760996818542,-0.004766789264976978,0.02772081084549427,-0.4052334129810333,0.0,0.5,0.0,0.019999999552965164,25.5,-1.9705779552459717,6.179893262449391e-38,-0.0057942504063248634,0.0,2.0355675719598315e-20
138,0.4169999957084656,0.0,0.037086471915245056,-0.06758801639080048,-0.02239326387643814,0.075932577252388,-0.017237050458788872,-0.019545596092939377,0.045166391879320145,-0.032006409019231796,-0.8352353572845459,0.0,0.0,0.0,0.0,0.0,0.0,0.0,0.0,0.0,0.9138506054878235,-0.005465971305966377,0.027126716449856758,-0.40509676933288574,0.0,0.5,0.0,0.019999999552965164,25.5,-1.9296130394952615e+34,-8.109383489105384e+37,-8.961248592947915e-16,0.0,4.531819456454457e+25
138,0.4169999957084656,0.0,0.1384306102991104,-0.05101631209254265,0.04375263303518295,0.1287558376789093,0.06665941327810287,0.05155638977885246,0.043227795511484146,-0.03250844031572342,-0.8344137072563171,0.0,0.0,0.0,0.0,0.0,0.0,0.0,0.0,0.0,0.9140287041664124,-0.0060994867235422134,0.02634037286043167,-0.40473756194114685,0.0,0.25,0.0,0.009999999776482582,25.5625,1.7827547164200874e-13,nan,2.512381248477428e-15,0.0,4.854334959406084e-25
138,0.4169999957084656,0.0,0.14001815021038055,-0.11260461062192917,0.10739608854055405,0.17277169227600098,0.024190885946154594,0.11568427830934525,0.042590584605932236,-0.03183480352163315,-0.8329927325248718,0.0,0.0,0.0,0.0,0.0,0.0,0.0,0.0,0.0,0.9143223166465759,-0.00593919213861227,0.025908706709742546,-0.4041043221950531,0.0,0.25,0.0,0.009999999776482582,25.5625,3.354608355988929e-20,6.31432058195428e-35,-1.9694252699706225e+24,0.0,-1.9895584755341426e+37
138,0.4169999957084656,0.0,-0.060041800141334534,-0.08499180525541306,0.009863815270364285,0.02192116342484951,-0.10192613303661346,0.007501411717385054,0.041112080216407776,-0.032149236649274826,-0.831458568572998,0.0,0.0,0.0,0.0,0.0,0.0,0.0,0.0,0.0,0.9146403670310974,-0.006401534657925367,0.02529161237180233,-0.40341585874557495,0.0,0.25,0.0,0.009999999776482582,25.5625,-1.9705779552459717,6.179893262449391e-38,-0.0057942504063248634,0.0,2.0355675719598315e-20
138,0.4169999957084656,0.0,0.09268293529748917,-0.00873961579054594,-0.07612136751413345,0.07206303626298904,0.06489162892103195,-0.07111073285341263,0.04183505102992058,-0.032325685024261475,-0.8309341073036194,0.0,0.0,0.0,0.0,0.0,0.0,0.0,0.0,0.0,0.9147410988807678,-0.006342908833175898,0.02565607614815235,-0.40316542983055115,0.0,0.25,0.0,0.009999999776482582,25.5625,-1.9296130394952615e+34,-8.109383489105384e+37,-8.961248592947915e-16,0.0,4.531819456454457e+25
138,0.4169999957084656,0.0,-0.06624610722064972,-0.034355394542217255,-0.0029383087530732155,-0.019201595336198807,-0.07191728055477142,-0.00604879530146718,0.04351285099983215,-0.03155071288347244,-0.8301123380661011,0.0,0.0,0.0,0.0,0.0,0.0,0.0,0.0,0.0,0.9148980379104614,-0.005660518072545528,0.026264678686857224,-0.40278008580207825,0.0,0.4375,0.0,0.017500000074505806,25.5,1.7827547164200874e-13,nan,2.512381248477428e-15,0.0,4.854334959406084e-25
138,0.4169999957084656,0.0,0.04911760613322258,-0.11012641340494156,-0.23896698653697968,0.12523528933525085,-0.03055865317583084,-0.23457783460617065,0.04580369219183922,-0.032113246619701385,-0.8300111889839172,0.0,0.0,0.0,0.0,0.0,0.0,0.0,0.0,0.0,0.9149008393287659,-0.005457149352878332,0.02742529846727848,-0.4026992917060852,0.0,0.4375,0.0,0.017500000074505806,25.5,3.354608355988929e-20,6.31432058195428e-35,-1.9694252699706225e+24,0.0,-1.9895584755341426e+37
138,0.4169999957084656,0.0,0.10454923659563065,-0.009103529155254364,-0.06821445375680923,0.08027992397546768,0.07309118658304214,-0.062283143401145935,0.04561091586947441,-0.03243550658226013,-0.8303503394126892,0.0,0.0,0.0,0.0,0.0,0.0,0.0,0.0,0.0,0.9148329496383667,-0.005638801492750645,0.027402985841035843,-0.402852326631546,0.0,0.4375,0.0,0.017500000074505806,25.5,-1.9705779552459717,6.179893262449391e-38,-0.0057942504063248634,0.0,2.0355675719598315e-20
138,0.4169999957084656,0.0,0.014232813380658627,-0.08076992630958557,-0.021421469748020172,0.07011233270168304,-0.043325092643499374,-0.019806943833827972,0.043837327510118484,-0.0330074168741703,-0.8307414054870605,0.0,0.0,0.0,0.0,0.0,0.0,0.0,0.0,0.0,0.9147647619247437,-0.006253029685467482,0.026708390563726425,-0.4030447006225586,0.0,0.4375,0.0,0.017500000074505806,25.5,-1.9296130394952615e+34,-8.109383489105384e+37,-8.961248592947915e-16,0.0,4.531819456454457e+25
138,0.4169999957084656,0.0,0.10743150115013123,0.02531379833817482,0.03188701719045639,0.05234762281179428,0.09521935135126114,0.03730805963277817,0.043488893657922745,-0.03249311074614525,-0.8303928971290588,0.0,0.0,0.0,0.0,0.0,0.0,0.0,0.0,0.0,0.9148389101028442,-0.006092735566198826,0.026444366201758385,-0.40289634466171265,0.0,0.375,0.0,0.014999999664723873,25.5625,1.7827547164200874e-13,nan,2.512381248477428e-15,0.0,4.854334959406084e-25
138,0.4169999957084656,0.0,0.10621660202741623,0.034018564969301224,-0.01836780458688736,0.04734987020492554,0.10179848968982697,-0.013094467110931873,0.04371184855699539,-0.03169780969619751,-0.8298770785331726,0.0,0.0,0.0,0.0,0.0,0.0,0.0,0.0,0.0,0.9149436950683594,-0.005690771620720625,0.026384638622403145,-0.4026682376861572,0.0,0.375,0.0,0.014999999664723873,25.5625,3.354608355988929e-20,6.31432058195428e-35,-1.9694252699706225e+24,0.0,-1.9895584755341426e+37
138,0.4169999957084656,0.0,0.07570166140794754,0.004776275251060724,-0.12549404799938202,0.052930135279893875,0.06280628591775894,-0.12147319316864014,0.042814526706933975,-0.03064517118036747,-0.8293540477752686,0.0,0.0,0.0,0.0,0.0,0.0,0.0,0.0,0.0,0.9150578379631042,-0.005396895110607147,0.02576090767979622,-0.4024529457092285,0.0,0.375,0.0,0.014999999664723873,25.5625,-1.9705779552459717,6.179893262449391e-38,-0.0057942504063248634,0.0,2.0355675719598315e-20
138,0.4169999957084656,0.0,0.06899446249008179,0.004523552022874355,-0.17617706954479218,0.050445396453142166,0.0591992512345314,-0.17253753542900085,0.04109274595975876,-0.030274029821157455,-0.8296282887458801,0.0,0.0,0.0,0.0,0.0,0.0,0.0,0.0,0.0,0.9150149822235107,-0.005570658482611179,0.024899430572986603,-0.4026024043560028,0.0,0.4375,0.0,0.017500000074505806,25.5,-1.9296130394952615e+34,-8.109383489105384e+37,-8.961248592947915e-16,0.0,4.531819456454457e+25
138,0.4169999957084656,0.0,0.03526062145829201,0.08191994577646255,0.1279744654893875,-0.04175618663430214,0.07741232216358185,0.12882164120674133,0.0404730848968029,-0.03066767193377018,-0.8294292092323303,0.0,0.0,0.0,0.0,0.0,0.0,0.0,0.0,0.0,0.9150577187538147,-0.005878126248717308,0.024694662541151047,-0.402513325214386,0.0,0.4375,0.0,0.017500000074505806,25.5,1.7827547164200874e-13,nan,2.512381248477428e-15,0.0,4.854334959406084e-25
138,0.4169999957084656,0.0,0.0759260281920433,0.037775542587041855,-0.13340096175670624,0.028748605400323868,0.08545077592134476,-0.1298416554927826,0.04034236818552017,-0.030021309852600098,-0.8297215700149536,0.0,0.0,0.0,0.0,0.0,0.0,0.0,0.0,0.0,0.9150015711784363,-0.005605158396065235,0.024505604058504105,-0.4026564657688141,0.0,0.4375,0.0,0.017500000074505806,25.5,3.354608355988929e-20,6.31432058195428e-35,-1.9694252699706225e+24,0.0,-1.9895584755341426e+37
138,0.4169999957084656,0.0,0.06930447369813919,-0.04826068505644798,-0.04139236360788345,0.08393546938896179,0.019589634612202644,-0.037636056542396545,0.03864576667547226,-0.028422651812434196,-0.8292756676673889,0.0,0.0,0.0,0.0,0.0,0.0,0.0,0.0,0.0,0.915105938911438,-0.005221023689955473,0.023406559601426125,-0.40248966217041016,0.0,0.4375,0.0,0.017500000074505806,25.5,-1.9705779552459717,6.179893262449391e-38,-0.0057942504063248634,0.0,2.0355675719598315e-20
138,0.4169999957084656,0.0,0.025295762345194817,0.0033870451152324677,0.06231018155813217,0.012095940299332142,0.01913680136203766,0.06341376900672913,0.040107663720846176,-0.02837798185646534,-0.8283687829971313,0.0,0.0,0.0,0.0,0.0,0.0,0.0,0.0,0.0,0.9152795672416687,-0.004916929639875889,0.0240640752017498,-0.40205997228622437,0.0,0.375,0.0,0.014999999664723873,25.5,-1.9296130394952615e+34,-8.109383489105384e+37,-8.961248592947915e-16,0.0,4.531819456454457e+25
138,0.4169999957084656,0.0,0.11721721291542053,-0.016912132501602173,0.03612228482961655,0.09025084227323532,0.07368986308574677,0.04189344495534897,0.039291348308324814,-0.029551394283771515,-0.8279429078102112,0.0,0.0,0.0,0.0,0.0,0.0,0.0,0.0,0.0,0.915367066860199,-0.005623342003673315,0.023925280198454857,-0.4018596410751343,0.0,0.375,0.0,0.014999999664723873,25.5,1.7827547164200874e-13,nan,2.512381248477428e-15,0.0,4.854334959406084e-25
138,0.4169999957084656,0.0,-0.003281773766502738,-0.15770122408866882,0.04798027127981186,0.11192677915096283,-0.11063110828399658,0.049145422875881195,0.039305754005908966,-0.029788287356495857,-0.8276435732841492,0.0,0.0,0.0,0.0,0.0,0.0,0.0,0.0,0.0,0.9154264330863953,-0.005732455290853977,0.023978613317012787,-0.4017196297645569,0.0,0.375,0.0,0.014999999664723873,25.5,3.354608355988929e-20,6.31432058195428e-35,-1.9694252699706225e+24,0.0,-1.9895584755341426e+37
138,0.4169999957084656,0.0,0.038205068558454514,0.040778931230306625,-0.0012607956305146217,-0.004124797414988279,0.055740464478731155,0.00027288784622214735,0.042118653655052185,-0.030655773356556892,-0.8277251720428467,0.0,0.0,0.0,0.0,0.0,0.0,0.0,0.0,0.0,0.915389895439148,-0.005562706384807825,0.025440223515033722,-0.4017152786254883,0.0,0.375,0.0,0.014999999664723873,25.5,-1.9705779552459717,6.179893262449391e-38,-0.0057942504063248634,0.0,2.0355675719598315e-20
138,0.4169999957084656,0.0,0.046668797731399536,0.026855403557419777,0.041354142129421234,0.010051131248474121,0.05121620371937752,0.04341838136315346,0.04210016876459122,-0.03092721849679947,-0.8276404142379761,0.0,0.0,0.0,0.0,0.0,0.0,0.0,0.0,0.0,0.9154062867164612,-0.005691743455827236,0.025486046448349953,-0.40167325735092163,0.0,0.75,0.0,0.029999999329447746,25.5,-1.9296130394952615e+34,-8.109383489105384e+37,-8.961248592947915e-16,0.0,4.531819456454457e+25
138,0.4169999957084656,0.0,0.04290621727705002,-0.011586904525756836,-0.19605545699596405,0.04578619450330734,0.029737861827015877,-0.19347243010997772,0.04208415374159813,-0.03093300200998783,-0.8272820711135864,0.0,0.0,0.0,0.0,0.0,0.0,0.0,0.0,0.0,0.9154783487319946,-0.005702177062630653,0.02547885850071907,-0.4015093445777893,0.0,0.75,0.0,0.029999999329447746,25.5,1.7827547164200874e-13,nan,2.512381248477428e-15,0.0,4.854334959406084e-25
138,0.4169999957084656,0.0,0.0937449187040329,0.010684436187148094,-0.10559181123971939,0.059942398220300674,0.07920781522989273,-0.10091885179281235,0.04132978990674019,-0.029384000226855278,-0.8267797827720642,0.0,0.0,0.0,0.0,0.0,0.0,0.0,0.0,0.0,0.9155883193016052,-0.005151035729795694,0.02482137456536293,-0.40130728483200073,0.0,0.75,0.0,0.029999999329447746,25.5,3.354608355988929e-20,6.31432058195428e-35,-1.9694252699706225e+24,0.0,-1.9895584755341426e+37
138,0.4169999957084656,0.0,0.12394446134567261,-0.016361529007554054,0.1000947579741478,0.09205062687397003,0.07710466533899307,0.10597189515829086,0.03874154016375542,-0.028431782498955727,-0.8265177607536316,0.0,0.0,0.0,0.0,0.0,0.0,0.0,0.0,0.0,0.9156596064567566,-0.005238239653408527,0.0234450064599514,-0.40122634172439575,0.0,0.75,0.0,0.029999999329447746,25.5,-1.9705779552459717,6.179893262449391e-38,-0.0057942504063248634,0.0,2.0355675719598315e-20
138,0.4169999957084656,0.0,-0.0022152839228510857,0.03047104924917221,-0.15194325149059296,-0.01793677732348442,0.02340402640402317,-0.1521521955728531,0.03923898562788963,-0.028813399374485016,-0.8265925049781799,0.0,0.0,0.0,0.0,0.0,0.0,0.0,0.0,0.0,0.9156405329704285,-0.005312146153301001,0.023749452084302902,-0.40125083923339844,0.0,0.3125,0.0,0.012500000186264515,25.5,-1.9296130394952615e+34,-8.109383489105384e+37,-8.961248592947915e-16,0.0,4.531819456454457e+25
138,0.4169999957084656,0.0,0.09122628718614578,0.06808110326528549,-0.022313155233860016,0.01251471508294344,0.11377894878387451,-0.01877947337925434,0.03134600818157196,-0.0277705155313015,-0.8256369233131409,0.0,0.0,0.0,0.0,0.0,0.0,0.0,0.0,0.0,0.915876567363739,-0.006429732311517,0.019924236461520195,-0.40090376138687134,0.0,0.3125,0.0,0.012500000186264515,25.5,1.7827547164200874e-13,nan,2.512381248477428e-15,0.0,4.854334959406084e-25
138,0.4169999957084656,0.0,0.0700153037905693,0.08218270540237427,-0.315097838640213,-0.002346983877941966,0.11621086299419403,-0.3121386170387268,0.03349525108933449,-0.02875504642724991,-0.8254560232162476,0.0,0.0,0.0,0.0,0.0,0.0,0.0,0.0,0.0,0.9158997535705566,-0.006451232824474573,0.021105021238327026,-0.40078991651535034,0.0,0.3125,0.0,0.012500000186264515,25.5,3.354608355988929e-20,6.31432058195428e-35,-1.9694252699706225e+24,0.0,-1.9895584755341426e+37
138,0.4169999957084656,0.0,-0.04019010439515114,-0.01473257690668106,0.21292968094348907,-0.022945566102862358,-0.045684464275836945,0.21108534932136536,0.03065652959048748,-0.029080284759402275,-0.8255754709243774,0.0,0.0,0.0,0.0,0.0,0.0,0.0,0.0,0.0,0.9158874154090881,-0.007168482523411512,0.019870879128575325,-0.400869220495224,0.0,0.5625,0.0,0.02250000089406967,25.5,-1.9705779552459717,6.179893262449391e-38,-0.0057942504063248634,0.0,2.0355675719598315e-20
138,0.4169999957084656,0.0,-0.03845464065670967,0.06677457690238953,-0.18929390609264374,-0.06936567276716232,0.022717973217368126,-0.19089634716510773,0.03031417727470398,-0.029468193650245667,-0.8247323036193848,0.0,0.0,0.0,0.0,0.0,0.0,0.0,0.0,0.0,0.916056215763092,-0.007423154544085264,0.019788753241300583,-0.40048253536224365,0.0,0.5625,0.0,0.02250000089406967,25.5,-1.9296130394952615e+34,-8.109383489105384e+37,-8.961248592947915e-16,0.0,4.531819456454457e+25
138,0.4169999957084656,0.0,-0.02908606082201004,-0.02258286066353321,0.1526937037706375,-0.006836844142526388,-0.040950652211904526,0.15148353576660156,0.023500509560108185,-0.028091030195355415,-0.8222370743751526,0.0,0.0,0.0,0.0,0.0,0.0,0.0,0.0,0.0,0.9165830016136169,-0.008178540505468845,0.016382373869419098,-0.3994150161743164,0.0,0.5625,0.0,0.02250000089406967,25.5,1.7827547164200874e-13,nan,2.512381248477428e-15,0.0,4.854334959406084e-25
138,0.4169999957084656,0.0,0.09765652567148209,-0.06831531971693039,0.040583573281764984,0.1154681071639061,0.023806627839803696,0.04416922852396965,0.02499530091881752,-0.028107600286602974,-0.8220914602279663,0.0,0.0,0.0,0.0,0.0,0.0,0.0,0.0,0.0,0.9166079759597778,-0.007888627238571644,0.017070060595870018,-0.39933493733406067,0.0,0.5625,0.0,0.02250000089406967,25.5,3.354608355988929e-20,6.31432058195428e-35,-1.9694252699706225e+24,0.0,-1.9895584755341426e+37
138,0.4169999957084656,0.0,0.12121757119894028,0.051145900040864944,0.01068111415952444,0.04504026472568512,0.12312262505292892,0.015349416062235832,0.02293347753584385,-0.029452964663505554,-0.820037305355072,0.0,0.0,0.0,0.0,0.0,0.0,0.0,0.0,0.0,0.9170172810554504,-0.008934056386351585,0.01638471521437168,-0.39840054512023926,0.0,0.625,0.0,0.02500000037252903,25.5,-1.9705779552459717,6.179893262449391e-38,-0.0057942504063248634,0.0,2.0355675719598315e-20
138,0.4169999957084656,0.0,0.1033998504281044,0.01713220588862896,-0.08861354738473892,0.06010584905743599,0.08996318280696869,-0.08444532006978989,0.023739339783787727,-0.031200392171740532,-0.8199564814567566,0.0,0.0,0.0,0.0,0.0,0.0,0.0,0.0,0.0,0.9170234203338623,-0.009575297124683857,0.017101844772696495,-0.3983413577079773,0.0,0.625,0.0,0.02500000037252903,25.5,-1.9296130394952615e+34,-8.109383489105384e+37,-8.961248592947915e-16,0.0,4.531819456454457e+25
138,0.4169999957084656,0.0,0.032894011586904526,0.0065797558054327965,-0.036033667623996735,0.018434491008520126,0.02960958331823349,-0.03474389389157295,0.02168199233710766,-0.030899763107299805,-0.8190421462059021,0.0,0.0,0.0,0.0,0.0,0.0,0.0,0.0,0.0,0.9172112941741943,-0.00985492579638958,0.016094278544187546,-0.397943913936615,0.0,0.625,0.0,0.02500000037252903,25.5,1.7827547164200874e-13,nan,2.512381248477428e-15,0.0,4.854334959406084e-25
138,0.4169999957084656,0.0,0.046406351029872894,-0.11346904188394547,0.04367443174123764,0.11364494264125824,-0.04512592777609825,0.044547006487846375,0.02040848694741726,-0.03279848396778107,-0.8186035752296448,0.0,0.0,0.0,0.0,0.0,0.0,0.0,0.0,0.0,0.9172907471656799,-0.010982757434248924,0.01588570699095726,-0.39773955941200256,0.0,0.625,0.0,0.02500000037252903,25.5,3.354608355988929e-20,6.31432058195428e-35,-1.9694252699706225e+24,0.0,-1.9895584755341426e+37
138,0.4169999957084656,0.0,0.0758543387055397,-0.060206200927495956,-0.03685954958200455,0.09658119827508926,0.015240689739584923,-0.03430626541376114,0.021598706021904945,-0.03236601874232292,-0.8172441720962524,0.0,0.0,0.0,0.0,0.0,0.0,0.0,0.0,0.0,0.917561411857605,-0.010558634996414185,0.016338342800736427,-0.3971081078052521,0.0,0.1875,0.0,0.007499999832361937,25.5,-1.9705779552459717,6.179893262449391e-38,-0.0057942504063248634,0.0,2.0355675719598315e-20
138,0.4169999957084656,0.0,0.0031958846375346184,-0.04885425791144371,-0.09853080660104752,0.03991546109318733,-0.027878185734152794,-0.0986642837524414,0.02167646214365959,-0.03309489041566849,-0.8164301514625549,0.0,0.0,0.0,0.0,0.0,0.0,0.0,0.0,0.0,0.9177188277244568,-0.010884293355047703,0.016514301300048828,-0.39672785997390747,0.0,0.1875,0.0,0.007499999832361937,25.5,-1.9296130394952615e+34,-8.109383489105384e+37,-8.961248592947915e-16,0.0,4.531819456454457e+25
138,0.4169999957084656,0.0,0.11363059282302856,-0.09325742721557617,-0.03777126222848892,0.14654402434825897,0.01997462846338749,-0.034073811024427414,0.02083611860871315,-0.033583201467990875,-0.815616250038147,0.0,0.0,0.0,0.0,0.0,0.0,0.0,0.0,0.0,0.9178788065910339,-0.011281797662377357,0.01622103340923786,-0.39635857939720154,0.0,0.1875,0.0,0.007499999832361937,25.5,1.7827547164200874e-13,nan,2.512381248477428e-15,0.0,4.854334959406084e-25
138,0.4169999957084656,0.0,0.007419401314109564,-0.09687605500221252,-0.011838951148092747,0.0758022665977478,-0.06067910045385361,-0.01233233604580164,0.020942553877830505,-0.034144144505262375,-0.8147316575050354,0.0,0.0,0.0,0.0,0.0,0.0,0.0,0.0,0.0,0.9180506467819214,-0.011525366455316544,0.016375942155718803,-0.3959468901157379,0.0,0.375,0.0,0.014999999664723873,25.5,3.354608355988929e-20,6.31432058195428e-35,-1.9694252699706225e+24,0.0,-1.9895584755341426e+37
138,0.4169999957084656,0.0,0.09896091371774673,-0.04675119370222092,0.02699180692434311,0.10135006159543991,0.03887610137462616,0.030399134382605553,0.020619133487343788,-0.03331383690237999,-0.8141772150993347,0.0,0.0,0.0,0.0,0.0,0.0,0.0,0.0,0.0,0.9181656241416931,-0.011212769895792007,0.01606001704931259,-0.3957023322582245,0.0,0.375,0.0,0.014999999664723873,25.5,-1.9705779552459717,6.179893262449391e-38,-0.0057942504063248634,0.0,2.0355675719598315e-20
138,0.4169999957084656,0.0,0.012030639685690403,0.019278038293123245,-0.13651470839977264,-0.003300115931779146,0.026244552806019783,-0.13584059476852417,0.017994705587625504,-0.031287264078855515,-0.8140817880630493,0.0,0.0,0.0,0.0,0.0,0.0,0.0,0.0,0.0,0.918198823928833,-0.0108027383685112,0.014453834854066372,-0.3956984281539917,0.0,0.375,0.0,0.014999999664723873,25.5,-1.9296130394952615e+34,-8.109383489105384e+37,-8.961248592947915e-16,0.0,4.531819456454457e+25
138,0.4169999957084656,0.0,0.017524398863315582,-0.03689783066511154,-0.04267314821481705,0.0396101213991642,-0.01127697341144085,-0.042348142713308334,0.017978381365537643,-0.031854402273893356,-0.8133018016815186,0.0,0.0,0.0,0.0,0.0,0.0,0.0,0.0,0.0,0.918350100517273,-0.011072021909058094,0.014554230496287346,-0.3953363597393036,0.0,0.375,0.0,0.014999999664723873,25.5,1.7827547164200874e-13,nan,2.512381248477428e-15,0.0,4.854334959406084e-25
138,0.4169999957084656,0.0,0.12256975471973419,0.014119953848421574,-0.06119636446237564,0.07521265745162964,0.10052013397216797,-0.05662300065159798,0.020148923620581627,-0.03080953098833561,-0.8129347562789917,0.0,0.0,0.0,0.0,0.0,0.0,0.0,0.0,0.0,0.9184252619743347,-0.010165714658796787,0.015342372469604015,-0.3951559066772461,0.0,0.5,0.0,0.019999999552965164,25.5,3.354608355988929e-20,6.31432058195428e-35,-1.9694252699706225e+24,0.0,-1.9895584755341426e+37
138,0.4169999957084656,0.0,0.06413527578115463,0.0381598174571991,-0.02284912019968033,0.016850095242261887,0.07348934561014175,-0.020171288400888443,0.021520115435123444,-0.031716182827949524,-0.8130248188972473,0.0,0.0,0.0,0.0,0.0,0.0,0.0,0.0,0.0,0.9184005856513977,-0.010310215875506401,0.01615154929459095,-0.3951774537563324,0.0,0.5,0.0,0.019999999552965164,25.5,-1.9705779552459717,6.179893262449391e-38,-0.0057942504063248634,0.0,2.0355675719598315e-20
138,0.4169999957084656,0.0,0.03329166769981384,-0.046296391636133194,-0.04936317354440689,0.057582706212997437,-0.006036943756043911,-0.04833332821726799,0.022014698013663292,-0.033126432448625565,-0.8130805492401123,0.0,0.0,0.0,0.0,0.0,0.0,0.0,0.0,0.0,0.9183812141418457,-0.010859531350433826,0.016657574102282524,-0.39518678188323975,0.0,0.5,0.0,0.019999999552965164,25.5,-1.9296130394952615e+34,-8.109383489105384e+37,-8.961248592947915e-16,0.0,4.531819456454457e+25
138,0.4169999957084656,0.0,0.043246589601039886,0.039104074239730835,-0.02138904482126236,0.0017803810769692063,0.05896564945578575,-0.01940896362066269,0.022914089262485504,-0.033167723566293716,-0.8135207295417786,0.0,0.0,0.0,0.0,0.0,0.0,0.0,0.0,0.0,0.9182922840118408,-0.010696867480874062,0.017081016674637794,-0.3953796625137329,0.0,0.5,0.0,0.019999999552965164,25.5,1.7827547164200874e-13,nan,2.512381248477428e-15,0.0,4.854334959406084e-25
138,0.4169999957084656,0.0,0.004675088915973902,-0.08914878964424133,0.06622406095266342,0.06656994670629501,-0.05991817265748978,0.06582587212324142,0.021466102451086044,-0.031287115067243576,-0.8137068748474121,0.0,0.0,0.0,0.0,0.0,0.0,0.0,0.0,0.0,0.9182680249214172,-0.010118394158780575,0.016045421361923218,-0.39549458026885986,0.0,0.375,0.0,0.014999999664723873,25.5,3.354608355988929e-20,6.31432058195428e-35,-1.9694252699706225e+24,0.0,-1.9895584755341426e+37
138,0.4169999957084656,0.0,0.14924903213977814,0.015526222996413708,0.11054226011037827,0.0887870267033577,0.11555159091949463,0.11618983000516891,0.021535785868763924,-0.03161316737532616,-0.8139687180519104,0.0,0.0,0.0,0.0,0.0,0.0,0.0,0.0,0.0,0.9182144999504089,-0.010252194479107857,0.016143228858709335,-0.39561155438423157,0.0,0.375,0.0,0.014999999664723873,25.5,-1.9705779552459717,6.179893262449391e-38,-0.0057942504063248634,0.0,2.0355675719598315e-20
138,0.4169999957084656,0.0,0.0541999489068985,-0.0009255484910681844,0.028579674661159515,0.03724244609475136,0.03777370601892471,0.030681874603033066,0.02213677577674389,-0.03320222720503807,-0.8140446543693542,0.0,0.0,0.0,0.0,0.0,0.0,0.0,0.0,0.0,0.918190062046051,-0.010862129740417004,0.016733836382627487,-0.39562761783599854,0.0,0.375,0.0,0.014999999664723873,25.5,-1.9296130394952615e+34,-8.109383489105384e+37,-8.961248592947915e-16,0.0,4.531819456454457e+25
138,0.4169999957084656,0.0,-0.010052711702883244,0.039518799632787704,-0.17757992446422577,-0.03163712099194527,0.02565125934779644,-0.17758943140506744,0.02243347279727459,-0.03269702568650246,-0.8137930631637573,0.0,0.0,0.0,0.0,0.0,0.0,0.0,0.0,0.0,0.9182419180870056,-0.010573560371994972,0.016768762841820717,-0.3955134153366089,0.0,0.375,0.0,0.014999999664723873,25.5,1.7827547164200874e-13,nan,2.512381248477428e-15,0.0,4.854334959406084e-25
138,0.4169999957084656,0.0,-0.049448028206825256,-0.1018713191151619,-0.08830360323190689,0.04220467433333397,-0.10292047262191772,-0.09080865979194641,0.02411063387989998,-0.033497441560029984,-0.8137558102607727,0.0,0.0,0.0,0.0,0.0,0.0,0.0,0.0,0.0,0.918241560459137,-0.010609419085085392,0.017696743831038475,-0.39547282457351685,0.0,0.625,0.0,0.02500000037252903,25.5,3.354608355988929e-20,6.31432058195428e-35,-1.9694252699706225e+24,0.0,-1.9895584755341426e+37
138,0.4169999957084656,0.0,0.0954715684056282,-0.049258410930633545,-0.008112945593893528,0.10154103487730026,0.03573751822113991,-0.004369648173451424,0.025039196014404297,-0.03373020887374878,-0.8137942552566528,0.0,0.0,0.0,0.0,0.0,0.0,0.0,0.0,0.0,0.9182305932044983,-0.01053215004503727,0.0181692186743021,-0.3954789340496063,0.0,0.625,0.0,0.02500000037252903,25.5,-1.9705779552459717,6.179893262449391e-38,-0.0057942504063248634,0.0,2.0355675719598315e-20
138,0.4169999957084656,0.0,0.002846483839675784,0.10696353763341904,0.023199044167995453,-0.07629317045211792,0.07480297982692719,0.023899191990494728,0.023738283663988113,-0.033319730311632156,-0.8133665919303894,0.0,0.0,0.0,0.0,0.0,0.0,0.0,0.0,0.0,0.9183202385902405,-0.010604926384985447,0.017488613724708557,-0.39529937505722046,0.0,0.625,0.0,0.02500000037252903,25.5,-1.9296130394952615e+34,-8.109383489105384e+37,-8.961248592947915e-16,0.0,4.531819456454457e+25
138,0.4169999957084656,0.0,0.05524933338165283,0.011445373296737671,-0.13591770827770233,0.03309394419193268,0.052563805133104324,-0.13341137766838074,0.025380104780197144,-0.033982984721660614,-0.8131298422813416,0.0,0.0,0.0,0.0,0.0,0.0,0.0,0.0,0.0,0.9183596968650818,-0.010586827993392944,0.018372176215052605,-0.3951680660247803,0.0,0.25,0.0,0.009999999776482582,25.5625,1.7827547164200874e-13,nan,2.512381248477428e-15,0.0,4.854334959406084e-25
138,0.4169999957084656,0.0,0.022133463993668556,-0.04276761785149574,0.02330871671438217,0.04569019749760628,-0.014126942493021488,0.023980120196938515,0.024466771632432938,-0.03303512930870056,-0.8128088116645813,0.0,0.0,0.0,0.0,0.0,0.0,0.0,0.0,0.0,0.9184303879737854,-0.010335084050893784,0.01776391826570034,-0.39503854513168335,0.0,0.25,0.0,0.009999999776482582,25.5625,3.354608355988929e-20,6.31432058195428e-35,-1.9694252699706225e+24,0.0,-1.9895584755341426e+37
138,0.4169999957084656,0.0,-0.02565055713057518,0.0338536873459816,0.03948017209768295,-0.04318930208683014,0.003361653070896864,0.03854914754629135,0.024920333176851273,-0.033355679363012314,-0.8128020167350769,0.0,0.0,0.0,0.0,0.0,0.0,0.0,0.0,0.0,0.918428897857666,-0.010392673313617706,0.018035443499684334,-0.39502793550491333,0.0,0.25,0.0,0.009999999776482582,25.5625,-1.9705779552459717,6.179893262449391e-38,-0.0057942504063248634,0.0,2.0355675719598315e-20
138,0.4169999957084656,0.0,0.04099264740943909,-0.10778821259737015,-0.0405903235077858,0.10752713680267334,-0.042956940829753876,-0.03922557085752487,0.027117818593978882,-0.035227272659540176,-0.8129810690879822,0.0,0.0,0.0,0.0,0.0,0.0,0.0,0.0,0.0,0.9183779358863831,-0.010815925896167755,0.019414983689785004,-0.3950696885585785,0.0,0.25,0.0,0.009999999776482582,25.5625,-1.9296130394952615e+34,-8.109383489105384e+37,-8.961248592947915e-16,0.0,4.531819456454457e+25
138,0.4169999957084656,0.0,0.13522693514823914,0.03440243750810623,0.033640824258327484,0.06702715158462524,0.12056358903646469,0.03966114670038223,0.028847483918070793,-0.033599305897951126,-0.8124247193336487,0.0,0.0,0.0,0.0,0.0,0.0,0.0,0.0,0.0,0.9184908866882324,-0.009731856174767017,0.019884783774614334,-0.3948117196559906,0.0,0.625,0.0,0.02500000037252903,25.5,1.7827547164200874e-13,nan,2.512381248477428e-15,0.0,4.854334959406084e-25
138,0.4169999957084656,0.0,0.12691998481750488,-0.05785788223147392,-0.022741355001926422,0.12986281514167786,0.053100619465112686,-0.017001032829284668,0.030133763328194618,-0.034776363521814346,-0.8134348392486572,0.0,0.0,0.0,0.0,0.0,0.0,0.0,0.0,0.0,0.9182811975479126,-0.010007740929722786,0.020712783560156822,-0.39524978399276733,0.0,0.625,0.0,0.02500000037252903,25.5,3.354608355988929e-20,6.31432058195428e-35,-1.9694252699706225e+24,0.0,-1.9895584755341426e+37
138,0.4169999957084656,0.0,0.05446130037307739,-0.06685227155685425,0.05188079923391342,0.08444606512784958,-0.00814617145806551,0.054122213274240494,0.029160406440496445,-0.03365078568458557,-0.8138171434402466,0.0,0.0,0.0,0.0,0.0,0.0,0.0,0.0,0.0,0.9182144999504089,-0.009679703041911125,0.020045369863510132,-0.3954472839832306,0.0,0.625,0.0,0.02500000037252903,25.5,-1.9705779552459717,6.179893262449391e-38,-0.0057942504063248634,0.0,2.0355675719598315e-20
138,0.4169999957084656,0.0,0.14693640172481537,-0.035170212388038635,-0.10360530763864517,0.12933430075645447,0.08591104298830032,-0.09722501784563065,0.028612660244107246,-0.03225790336728096,-0.8143989443778992,0.0,0.0,0.0,0.0,0.0,0.0,0.0,0.0,0.0,0.9181078672409058,-0.009142965078353882,0.019521191716194153,-0.39573389291763306,0.0,0.625,0.0,0.02500000037252903,25.5,-1.9296130394952615e+34,-8.109383489105384e+37,-8.961248592947915e-16,0.0,4.531819456454457e+25
138,0.4169999957084656,0.0,-0.026780780404806137,-0.06269045919179916,-0.017140425741672516,0.027700288221240044,-0.06192770600318909,-0.018403058871626854,0.027762947604060173,-0.03255430981516838,-0.8147093057632446,0.0,0.0,0.0,0.0,0.0,0.0,0.0,0.0,0.0,0.9180478453636169,-0.009444363415241241,0.0191913153976202,-0.39588215947151184,0.0,0.3125,0.0,0.012500000186264515,25.5,1.7827547164200874e-13,nan,2.512381248477428e-15,0.0,4.854334959406084e-25
138,0.4169999957084656,0.0,-0.015665588900446892,-0.018762050196528435,-0.023956336081027985,0.003593970788642764,-0.02343696728348732,-0.02468004636466503,0.028967255726456642,-0.03428906947374344,-0.8146814107894897,0.0,0.0,0.0,0.0,0.0,0.0,0.0,0.0,0.0,0.9180411100387573,-0.010002298280596733,0.020087236538529396,-0.3958396911621094,0.0,0.3125,0.0,0.012500000186264515,25.5,3.354608355988929e-20,6.31432058195428e-35,-1.9694252699706225e+24,0.0,-1.9895584755341426e+37
138,0.4169999957084656,0.0,0.002927729394286871,-0.020914381369948387,-0.08268360048532486,0.019564421847462654,-0.009459801018238068,-0.08252386748790741,0.02839861810207367,-0.03351574018597603,-0.8146523237228394,0.0,0.0,0.0,0.0,0.0,0.0,0.0,0.0,0.0,0.9180524349212646,-0.009760282002389431,0.019673071801662445,-0.3958400785923004,0.0,0.3125,0.0,0.012500000186264515,25.5,-1.9705779552459717,6.179893262449391e-38,-0.0057942504063248634,0.0,2.0355675719598315e-20
138,0.4169999957084656,0.0,0.052908722311258316,0.04744928702712059,-0.05664447695016861,0.0033302202355116606,0.07288078963756561,-0.05418979004025459,0.02747325412929058,-0.03312639147043228,-0.8147673010826111,0.0,0.0,0.0,0.0,0.0,0.0,0.0,0.0,0.0,0.918034553527832,-0.009763813577592373,0.019171886146068573,-0.3959062695503235,0.0,0.3125,0.0,0.012500000186264515,25.5,-1.9296130394952615e+34,-8.109383489105384e+37,-8.961248592947915e-16,0.0,4.531819456454457e+25
138,0.4169999957084656,0.0,0.04473063722252846,0.023832743987441063,-0.03571895509958267,0.01425843220204115,0.04997768998146057,-0.03381625935435295,0.02492247335612774,-0.031516626477241516,-0.8142443895339966,0.0,0.0,0.0,0.0,0.0,0.0,0.0,0.0,0.0,0.918152928352356,-0.009534979239106178,0.017680061981081963,-0.3957065939903259,0.0,0.3125,0.0,0.012500000186264515,25.5,1.7827547164200874e-13,nan,2.512381248477428e-15,0.0,4.854334959406084e-25
138,0.4169999957084656,0.0,0.016692904755473137,0.048429686576128006,-0.04158405214548111,-0.022666219621896744,0.046671312302351,-0.04075883701443672,0.026283880695700645,-0.031179705634713173,-0.8144071102142334,0.0,0.0,0.0,0.0,0.0,0.0,0.0,0.0,0.0,0.9181185364723206,-0.009109215810894966,0.018239028751850128,-0.3957710564136505,0.0,0.3125,0.0,0.012500000186264515,25.5,3.354608355988929e-20,6.31432058195428e-35,-1.9694252699706225e+24,0.0,-1.9895584755341426e+37
138,0.4169999957084656,0.0,0.03482851758599281,-0.07397297024726868,0.1294517070055008,0.07451549172401428,-0.02926085703074932,0.130512997508049,0.02447819523513317,-0.029286600649356842,-0.8145283460617065,0.0,0.0,0.0,0.0,0.0,0.0,0.0,0.0,0.0,0.9181080460548401,-0.008596784435212612,0.01703612506389618,-0.395860493183136,0.0,0.3125,0.0,0.012500000186264515,25.5,-1.9705779552459717,6.179893262449391e-38,-0.0057942504063248634,0.0,2.0355675719598315e-20
138,0.4169999957084656,0.0,0.033131226897239685,-0.01276013907045126,0.12256046384572983,0.02876102551817894,0.011768096126616001,0.12375631183385849,0.026404334232211113,-0.029079383239150047,-0.8150882124900818,0.0,0.0,0.0,0.0,0.0,0.0,0.0,0.0,0.0,0.9179924130439758,-0.008115090429782867,0.017881447449326515,-0.39610159397125244,0.0,0.375,0.0,0.014999999664723873,25.5,-1.9296130394952615e+34,-8.109383489105384e+37,-8.961248592947915e-16,0.0,4.531819456454457e+25
138,0.4169999957084656,0.0,0.08524574339389801,-0.023507634177803993,-0.2576294243335724,0.08414217084646225,0.054455943405628204,-0.2532702684402466,0.03353092446923256,-0.033450573682785034,-0.8155694603919983,0.0,0.0,0.0,0.0,0.0,0.0,0.0,0.0,0.0,0.9178517460823059,-0.008703329600393772,0.02201949805021286,-0.39620649814605713,0.0,0.375,0.0,0.014999999664723873,25.5,1.7827547164200874e-13,nan,2.512381248477428e-15,0.0,4.854334959406084e-25
138,0.4169999957084656,0.0,0.08273343741893768,-0.1140035092830658,-0.14267544448375702,0.14467810094356537,-0.013351703993976116,-0.13815656304359436,0.03531602770090103,-0.032391034066677094,-0.8161814212799072,0.0,0.0,0.0,0.0,0.0,0.0,0.0,0.0,0.0,0.9177265763282776,-0.007856057956814766,0.022631041705608368,-0.3964795768260956,0.0,0.375,0.0,0.014999999664723873,25.5,3.354608355988929e-20,6.31432058195428e-35,-1.9694252699706225e+24,0.0,-1.9895584755341426e+37
138,0.4169999957084656,0.0,0.051863811910152435,-0.0010783084435388446,0.1750630885362625,0.03012092597782612,0.031528886407613754,0.17730265855789185,0.03534632921218872,-0.031108077615499496,-0.8157026171684265,0.0,0.0,0.0,0.0,0.0,0.0,0.0,0.0,0.0,0.9178261756896973,-0.007266699802130461,0.022388866171240807,-0.39627400040626526,0.0,0.375,0.0,0.014999999664723873,25.5,-1.9705779552459717,6.179893262449391e-38,-0.0057942504063248634,0.0,2.0355675719598315e-20
138,0.4169999957084656,0.0,0.055840495973825455,0.12372821569442749,-0.1113148108124733,-0.047878243029117584,0.12888474762439728,-0.10915001481771469,0.036912161856889725,-0.031522709876298904,-0.8172407150268555,0.0,0.0,0.0,0.0,0.0,0.0,0.0,0.0,0.0,0.9175115823745728,-0.00712849386036396,0.023194914683699608,-0.3969581425189972,0.0,0.25,0.0,0.009999999776482582,25.5625,-1.9296130394952615e+34,-8.109383489105384e+37,-8.961248592947915e-16,0.0,4.531819456454457e+25
138,0.4169999957084656,0.0,-0.1626029759645462,-0.0088373813778162,-0.8501854538917542,-0.07272051274776459,-0.10109104216098785,-0.8566291332244873,0.03730784356594086,-0.027825351804494858,-0.819715678691864,0.0,0.0,0.0,0.0,0.0,0.0,0.0,0.0,0.0,0.9170289039611816,-0.0053256358951330185,0.022649120539426804,-0.39813148975372314,0.0,0.25,0.0,0.009999999776482582,25.5625,1.7827547164200874e-13,nan,2.512381248477428e-15,0.0,4.854334959406084e-25
138,0.4169999957084656,0.0,0.3460419178009033,-0.12415801733732224,0.8793010115623474,0.3130991756916046,0.1580730527639389,0.8861702084541321,0.015117743983864784,-0.01248206477612257,-0.8225078582763672,0.0,0.0,0.0,0.0,0.0,0.0,0.0,0.0,0.0,0.9165914058685303,-0.002698781667277217,0.009423254057765007,-0.39969494938850403,0.0,0.25,0.0,0.009999999776482582,25.5625,3.354608355988929e-20,6.31432058195428e-35,-1.9694252699706225e+24,0.0,-1.9895584755341426e+37
138,0.4169999957084656,0.0,0.1999371498823166,0.02562679722905159,-0.06437591463327408,0.11840946227312088,0.16458578407764435,-0.06054633855819702,0.02236207015812397,-0.007281532511115074,-0.8240525722503662,0.0,0.0,0.0,0.0,0.0,0.0,0.0,0.0,0.0,0.9162605404853821,0.0011416829656809568,0.011702973395586014,-0.4004002809524536,0.0,0.25,0.0,0.009999999776482582,25.5625,-1.9705779552459717,6.179893262449391e-38,-0.0057942504063248634,0.0,2.0355675719598315e-20
138,0.4169999957084656,0.0,0.05054771155118942,0.04410109668970108,0.07657810300588608,-0.00024327558639924973,0.06619686633348465,0.07734297215938568,0.027108099311590195,-0.011165504343807697,-0.8260750770568848,0.0,0.0,0.0,0.0,0.0,0.0,0.0,0.0,0.0,0.9158341288566589,0.00032751643448136747,0.014654361642897129,-0.4012792706489563,0.0,0.5,0.0,0.019999999552965164,25.5,-1.9296130394952615e+34,-8.109383489105384e+37,-8.961248592947915e-16,0.0,4.531819456454457e+25
138,0.4169999957084656,0.0,0.06346391141414642,0.041601378470659256,0.02671714872121811,0.011746784672141075,0.07448717206716537,0.028030728921294212,0.02980039082467556,-0.012747232802212238,-0.824427604675293,0.0,0.0,0.0,0.0,0.0,0.0,0.0,0.0,0.0,0.9161502718925476,0.0001302484015468508,0.016204575076699257,-0.4004974961280823,0.0,0.5,0.0,0.019999999552965164,25.5,1.7827547164200874e-13,nan,2.512381248477428e-15,0.0,4.854334959406084e-25
138,0.4169999957084656,0.0,0.08442271500825882,0.0479300431907177,-0.01640418916940689,0.022718075662851334,0.09469462931156158,-0.01449976209551096,0.03165515512228012,-0.012612272053956985,-0.8236090540885925,0.0,0.0,0.0,0.0,0.0,0.0,0.0,0.0,0.0,0.9163033366203308,0.0005566802574321628,0.01702732965350151,-0.400112509727478,0.0,0.5,0.0,0.019999999552965164,25.5,3.354608355988929e-20,6.31432058195428e-35,-1.9694252699706225e+24,0.0,-1.9895584755341426e+37
138,0.4169999957084656,0.0,0.026601701974868774,-0.015813544392585754,0.027711831033229828,0.028776606544852257,0.008380712009966373,0.02876296266913414,0.03227433189749718,-0.012594776228070259,-0.8227267265319824,0.0,0.0,0.0,0.0,0.0,0.0,0.0,0.0,0.0,0.9164760708808899,0.000680988363455981,0.017307784408330917,-0.3997046649456024,0.0,0.25,0.0,0.009999999776482582,25.5,-1.9705779552459717,6.179893262449391e-38,-0.0057942504063248634,0.0,2.0355675719598315e-20
138,0.4169999957084656,0.0,0.0050875903107225895,0.0043491823598742485,0.013981780968606472,-0.00016780705482233316,0.00652393139898777,0.014060423709452152,0.031517114490270615,-0.011671042069792747,-0.8226995468139648,0.0,0.0,0.0,0.0,0.0,0.0,0.0,0.0,0.0,0.9164857268333435,0.0009526478825137019,0.016776224598288536,-0.39970454573631287,0.0,0.25,0.0,0.009999999776482582,25.5,-1.9296130394952615e+34,-8.109383489105384e+37,-8.961248592947915e-16,0.0,4.531819456454457e+25
138,0.4169999957084656,0.0,0.09885548800230026,0.04722164571285248,-0.14573101699352264,0.03731329366564751,0.10639820992946625,-0.14327047765254974,0.03314676508307457,-0.01234170701354742,-0.8239560127258301,0.0,0.0,0.0,0.0,0.0,0.0,0.0,0.0,0.0,0.9162245988845825,0.0009822464780882,0.01765635795891285,-0.4002646803855896,0.0,0.25,0.0,0.009999999776482582,25.5,1.7827547164200874e-13,nan,2.512381248477428e-15,0.0,4.854334959406084e-25
138,0.4169999957084656,0.0,0.13534049689769745,0.03983534500002861,-0.154328390955925,0.06769808381795883,0.128365620970726,-0.15053139626979828,0.03258395940065384,-0.013119358569383621,-0.8239808082580566,0.0,0.0,0.0,0.0,0.0,0.0,0.0,0.0,0.0,0.9162234663963318,0.0005135208484716713,0.01755417510867119,-0.4002726972103119,0.0,0.25,0.0,0.009999999776482582,25.5,3.354608355988929e-20,6.31432058195428e-35,-1.9694252699706225e+24,0.0,-1.9895584755341426e+37
138,0.4169999957084656,0.0,0.014819866046309471,-0.0334935300052166,0.020686112344264984,0.033958639949560165,-0.0121872927993536,0.02162434533238411,0.03207029774785042,-0.013427206315100193,-0.8234248757362366,0.0,0.0,0.0,0.0,0.0,0.0,0.0,0.0,0.0,0.916337788105011,0.00026480891392566264,0.017380567267537117,-0.4000185430049896,0.0,0.3125,0.0,0.012500000186264515,25.5,-1.9705779552459717,6.179893262449391e-38,-0.0057942504063248634,0.0,2.0355675719598315e-20
138,0.4169999957084656,0.0,0.16803932189941406,-0.05591520294547081,0.1374005824327469,0.1509285569190979,0.08339089155197144,0.14320747554302216,0.030819378793239594,-0.01292396616190672,-0.8233508467674255,0.0,0.0,0.0,0.0,0.0,0.0,0.0,0.0,0.0,0.9163599610328674,0.00024443946313112974,0.016706835478544235,-0.39999663829803467,0.0,0.3125,0.0,0.012500000186264515,25.5,-1.9296130394952615e+34,-8.109383489105384e+37,-8.961248592947915e-16,0.0,4.531819456454457e+25
138,0.4169999957084656,0.0,0.08743636310100555,0.009266326203942299,-0.017178572714328766,0.053163256496191025,0.0706128254532814,-0.01461018156260252,0.031098544597625732,-0.013085421174764633,-0.8231409788131714,0.0,0.0,0.0,0.0,0.0,0.0,0.0,0.0,0.0,0.9164003729820251,0.00022455297585111111,0.016867047175765038,-0.3998974561691284,0.0,0.3125,0.0,0.012500000186264515,25.5,1.7827547164200874e-13,nan,2.512381248477428e-15,0.0,4.854334959406084e-25
138,0.4169999957084656,0.0,0.059149958193302155,0.0536208301782608,-0.08728698641061783,0.003659611800685525,0.08093016594648361,-0.08619526773691177,0.03190825879573822,-0.012672905810177326,-0.8234241604804993,0.0,0.0,0.0,0.0,0.0,0.0,0.0,0.0,0.0,0.9163388609886169,0.0005779730854555964,0.017155464738607407,-0.40002572536468506,0.0,0.3125,0.0,0.012500000186264515,25.5,3.354608355988929e-20,6.31432058195428e-35,-1.9694252699706225e+24,0.0,-1.9895584755341426e+37
138,0.4169999957084656,0.0,0.020178480073809624,-0.049484845250844955,-0.016572989523410797,0.050469256937503815,-0.018628939986228943,-0.01537377666682005,0.028622563928365707,-0.012767492793500423,-0.8236483335494995,0.0,0.0,0.0,0.0,0.0,0.0,0.0,0.0,0.0,0.9163126349449158,-0.00012109868839615956,0.015669090673327446,-0.4001472592353821,0.0,0.375,0.0,0.014999999664723873,25.5,-1.9705779552459717,6.179893262449391e-38,-0.0057942504063248634,0.0,2.0355675719598315e-20
138,0.4169999957084656,0.0,0.02597642131149769,-0.055107761174440384,-0.08163074404001236,0.060358040034770966,-0.017412429675459862,-0.0801796093583107,0.02816600352525711,-0.012158059515058994,-0.8237389922142029,0.0,0.0,0.0,0.0,0.0,0.0,0.0,0.0,0.0,0.9162968993186951,6.742730329278857e-05,0.015337993390858173,-0.4001960754394531,0.0,0.375,0.0,0.014999999664723873,25.5,-1.9296130394952615e+34,-8.109383489105384e+37,-8.961248592947915e-16,0.0,4.531819456454457e+25
138,0.4169999957084656,0.0,0.05169900506734848,-0.008134664036333561,0.13292498886585236,0.03777281567454338,0.030862465500831604,0.13426993787288666,0.025124719366431236,-0.011221880093216896,-0.8228572010993958,0.0,0.0,0.0,0.0,0.0,0.0,0.0,0.0,0.0,0.9164882898330688,-0.00011852097668452188,0.013757321983575821,-0.39981508255004883,0.0,0.375,0.0,0.014999999664723873,25.5,1.7827547164200874e-13,nan,2.512381248477428e-15,0.0,4.854334959406084e-25
138,0.4169999957084656,0.0,0.02341148629784584,0.07340499013662338,-0.13749317824840546,-0.0340237095952034,0.06866047531366348,-0.13772614300251007,0.028057346120476723,-0.011417560279369354,-0.8229517340660095,0.0,0.0,0.0,0.0,0.0,0.0,0.0,0.0,0.0,0.9164547324180603,0.0003789769543800503,0.01514019351452589,-0.3998415470123291,0.0,0.5,0.0,0.019999999552965164,25.5,3.354608355988929e-20,6.31432058195428e-35,-1.9694252699706225e+24,0.0,-1.9895584755341426e+37
138,0.4169999957084656,0.0,0.1268726885318756,-0.05223560705780983,0.03723045438528061,0.12362048029899597,0.05697626248002052,0.04102081432938576,0.025828290730714798,-0.010222911834716797,-0.8221405148506165,0.0,0.0,0.0,0.0,0.0,0.0,0.0,0.0,0.0,0.9166280031204224,0.0004749714571516961,0.01388018112629652,-0.39948999881744385,0.0,0.5,0.0,0.019999999552965164,25.5,-1.9705779552459717,6.179893262449391e-38,-0.0057942504063248634,0.0,2.0355675719598315e-20
