msg_type,mass,time,ax,ay,az,ax_local,ay_local,az_local,pitch,roll,yaw,vx,vy,vz,vx_local,vy_local,vz_local,x,y,z,qw,qx,qy,qz,apogee,baro_altitude,altitude,baro_pressure,baro_temperature,air_pressure,air_density,air_temperature,drag_coefficient
138,0.4779999852180481,0.0,0.37140727043151855,-0.4831186830997467,-0.017463721334934235,-0.122606061398983,-0.5968578457832336,0.01933901757001877,-0.006657793186604977,0.060271184891462326,0.8577978014945984,0.0,0.0,0.0,0.0,0.0,0.0,0.0,0.0,0.0,0.9089606404304504,0.028785381466150284,0.009504446759819984,0.41576796770095825,0.0,0.0,0.0,1014.6425170898438,22.9375,3.271218533603354e-20,6.31432058195428e-35,-2.2905461908057584e+24,0.0,-1.9563277756395197e+37
138,0.4779999852180481,0.0,0.1490451842546463,-0.2678071856498718,-0.06704334169626236,-0.10489887744188309,-0.2903759181499481,-0.05573470517992973,0.00028358708368614316,0.03920286148786545,0.8572404980659485,0.0,0.0,0.0,0.0,0.0,0.0,0.0,0.0,0.0,0.9093626737594604,0.017768148332834244,0.00827505998313427,0.4155321717262268,0.0,0.0,0.0,1014.6425170898438,22.9375,-1.4725310802459717,6.179893262449391e-38,-0.0057942504063248634,0.0,3.106029620300036e-25
138,0.4779999852180481,0.0,0.17635945975780487,-0.13750706613063812,-0.05137065798044205,0.011830814182758331,-0.22448262572288513,-0.046005506068468094,0.005607885774224997,0.02366579696536064,0.8569186925888062,0.0,0.0,0.0,0.0,0.0,0.0,0.0,0.0,0.0,0.9095496535301208,0.009598072618246078,0.00746637349948287,0.41540729999542236,0.0,0.0,0.0,1014.6425170898438,22.9375,-1.9275847985348963e+34,-5.068364680690865e+36,-9.091352853646175e-16,0.0,1.8006385243856365e+26
138,0.4779999852180481,0.0,0.11489106714725494,-0.05457110330462456,-0.006391563452780247,0.03404300659894943,-0.12260283529758453,-0.005307420622557402,0.007876803167164326,0.00665771821513772,0.8568108677864075,0.0,0.0,0.0,0.0,0.0,0.0,0.0,0.0,0.0,0.9096189737319946,0.0013918987242504954,0.004965329542756081,0.4154016971588135,0.0,0.0,0.0,1014.6425170898438,22.9375,1.80051828481409e-13,-1.6731051206588745,8.572894444531533e+23,0.0,4.850295991571352e-25
138,0.4779999852180481,0.0,-0.011079593561589718,0.03292679414153099,-0.04876617342233658,0.017997141927480698,0.029981523752212524,-0.04860272258520126,0.0077042607590556145,-0.0008627973147667944,0.8565735816955566,0.0,0.0,0.0,0.0,0.0,0.0,0.0,0.0,0.0,0.909667432308197,-0.001992271514609456,0.0033250420819967985,0.4153096675872803,0.0,-0.14581814408302307,0.0,1014.4450073242188,22.8125,3.271218533603354e-20,6.31432058195428e-35,-2.2905461908057584e+24,0.0,-1.9563277756395197e+37
138,0.4779999852180481,0.0,0.019892804324626923,0.02063051611185074,-0.04165271669626236,0.02889176830649376,-0.0014366962714120746,-0.04146626964211464,0.006617364939302206,-0.002786268014460802,0.8577895760536194,0.0,0.0,0.0,0.0,0.0,0.0,0.0,0.0,0.0,0.909414529800415,-0.002642909763380885,0.0024296538904309273,0.41586577892303467,0.0,-0.14581814408302307,0.0,1014.4450073242188,22.8125,-1.4725310802459717,6.179893262449391e-38,-0.0057942504063248634,0.0,3.106029620300036e-25
138,0.4779999852180481,0.0,0.016652848571538925,0.02249095030128956,-0.027166403830051422,0.028142141178250313,0.0022062312345951796,-0.026912854984402657,0.008740556426346302,-0.003891711588948965,0.8582874536514282,0.0,0.0,0.0,0.0,0.0,0.0,0.0,0.0,0.0,0.9093047976493835,-0.0035878224298357964,0.0031643437687307596,0.4160936176776886,0.0,-0.14581814408302307,0.0,1014.4450073242188,22.8125,-1.9275847985348963e+34,-5.068364680690865e+36,-9.091352853646175e-16,0.0,1.8006385243856365e+26
138,0.4779999852180481,0.0,0.02702808752655983,0.027386115863919258,-0.020151175558567047,0.03854052349925041,-0.002558795502409339,-0.019865471869707108,0.007602962199598551,-0.0026716662105172873,0.8599107265472412,0.0,0.0,0.0,0.0,0.0,0.0,0.0,0.0,0.0,0.9089711904525757,-0.0027988108340650797,0.002898680279031396,0.41682979464530945,0.0,-0.14581814408302307,0.0,1014.4450073242188,22.8125,1.80051828481409e-13,-1.6731051206588745,8.572894444531533e+23,0.0,4.850295991571352e-25
138,0.4779999852180481,0.0,-0.07807505130767822,0.03690841421484947,0.08775325864553452,-0.023549692705273628,0.08298463374376297,0.08784814924001694,0.007859861478209496,-0.0033439735416322947,0.8612905740737915,0.0,0.0,0.0,0.0,0.0,0.0,0.0,0.0,0.0,0.9086818695068359,-0.003159888321533799,0.0028731399215757847,0.4174577593803406,0.0,1.496513843536377,0.0,1014.6199951171875,22.9375,3.271218533603354e-20,6.31432058195428e-35,-2.2905461908057584e+24,0.0,-1.9563277756395197e+37
138,0.4779999852180481,0.0,-0.016805704683065414,0.009622742421925068,-0.07700828462839127,-0.002815640764310956,0.01934174634516239,-0.07696216553449631,0.01071110088378191,-0.004175648558884859,0.8616533875465393,0.0,0.0,0.0,0.0,0.0,0.0,0.0,0.0,0.0,0.9085975289344788,-0.0041335937567055225,0.003994245082139969,0.4176236689090729,0.0,1.496513843536377,0.0,1014.6199951171875,22.9375,-1.4725310802459717,6.179893262449391e-38,-0.0057942504063248634,0.0,3.106029620300036e-25
138,0.4779999852180481,0.0,-0.05023129656910896,0.0971183329820633,-0.006053009070456028,0.04101340100169182,0.10138671100139618,-0.005498724989593029,0.00785556249320507,-0.0022906765807420015,0.8613789081573486,0.0,0.0,0.0,0.0,0.0,0.0,0.0,0.0,0.0,0.9086650013923645,-0.002680571051314473,0.00309092178940773,0.41749629378318787,0.0,1.496513843536377,0.0,1014.6199951171875,22.9375,-1.9275847985348963e+34,-5.068364680690865e+36,-9.091352853646175e-16,0.0,1.8006385243856365e+26
138,0.4779999852180481,0.0,-0.017681553959846497,0.027404414489865303,-0.06303504854440689,0.009801594540476799,0.031561002135276794,-0.06280769407749176,0.008333610370755196,-0.00469048460945487,0.8614250421524048,0.0,0.0,0.0,0.0,0.0,0.0,0.0,0.0,0.0,0.9086503386497498,-0.0038707333151251078,0.0028070700354874134,0.41752076148986816,0.0,1.496513843536377,0.0,1014.6199951171875,22.9375,1.80051828481409e-13,-1.6731051206588745,8.572894444531533e+23,0.0,4.850295991571352e-25
138,0.4779999852180481,0.0,-0.06552958488464355,0.024073554202914238,-0.05568889528512955,-0.023895420134067535,0.0656285434961319,-0.05564790219068527,0.008557801134884357,-0.003770876443013549,0.8620936274528503,0.0,0.0,0.0,0.0,0.0,0.0,0.0,0.0,0.0,0.9085118770599365,-0.003500769380480051,0.0030997348949313164,0.4178231656551361,0.0,0.04173453524708748,0.0,1014.6174926757812,22.9375,3.271218533603354e-20,6.31432058195428e-35,-2.2905461908057584e+24,0.0,-1.9563277756395197e+37
138,0.4779999852180481,0.0,-0.020263100042939186,0.05155505612492561,0.023198090493679047,0.02564142644405365,0.048886656761169434,0.02364790253341198,0.012151475064456463,-0.002794061554595828,0.861535906791687,0.0,0.0,0.0,0.0,0.0,0.0,0.0,0.0,0.0,0.9086205363273621,-0.003806406632065773,0.004937330260872841,0.4175666570663452,0.0,0.04173453524708748,0.0,1014.6174926757812,22.9375,-1.4725310802459717,6.179893262449391e-38,-0.0057942504063248634,0.0,3.106029620300036e-25
138,0.4779999852180481,0.0,-0.030387382954359055,0.04968531057238579,-0.005080261267721653,0.018083158880472183,0.05539587885141373,-0.004698330536484718,0.015045872889459133,-0.0019924906082451344,0.8632684946060181,0.0,0.0,0.0,0.0,0.0,0.0,0.0,0.0,0.0,0.9082503914833069,-0.004052088130265474,0.006416144780814648,0.41834884881973267,0.0,0.04173453524708748,0.0,1014.6174926757812,22.9375,-1.9275847985348963e+34,-5.068364680690865e+36,-9.091352853646175e-16,0.0,1.8006385243856365e+26
138,0.4779999852180481,0.0,-0.022025423124432564,0.059996768832206726,-0.04886917024850845,0.031859517097473145,0.05584743246436119,-0.04836175590753555,0.009853550232946873,-0.0035050432197749615,0.8650553226470947,0.0,0.0,0.0,0.0,0.0,0.0,0.0,0.0,0.0,0.9078894853591919,-0.003656242275610566,0.003738469909876585,0.4191674590110779,0.0,0.04173453524708748,0.0,1014.6174926757812,22.9375,1.80051828481409e-13,-1.6731051206588745,8.572894444531533e+23,0.0,4.850295991571352e-25
138,0.4779999852180481,0.0,-0.03666844964027405,0.07184174656867981,-0.09200195223093033,0.0317593552172184,0.07462813705205917,-0.09160741418600082,0.008376791141927242,-0.0017571051139384508,0.8662918210029602,0.0,0.0,0.0,0.0,0.0,0.0,0.0,0.0,0.0,0.9076363444328308,-0.002555397106334567,0.0034328505862504244,0.41972610354423523,0.0,0.062350451946258545,0.0,1014.6224975585938,22.9375,3.271218533603354e-20,6.31432058195428e-35,-2.2905461908057584e+24,0.0,-1.9563277756395197e+37
138,0.4779999852180481,0.0,-0.0033615550491958857,0.03422222286462784,0.01586242765188217,0.023792022839188576,0.02464747615158558,0.016139892861247063,0.00902946013957262,-0.002517742570489645,0.8678509593009949,0.0,0.0,0.0,0.0,0.0,0.0,0.0,0.0,0.0,0.9073063731193542,-0.0030403390992432833,0.0035670476499944925,0.4204345941543579,0.0,0.062350451946258545,0.0,1014.6224975585938,22.9375,-1.4725310802459717,6.179893262449391e-38,-0.0057942504063248634,0.0,3.106029620300036e-25
138,0.4779999852180481,0.0,-0.07923061400651932,0.07913947850465775,0.04403778165578842,0.008955569006502628,0.11132603138685226,0.04478781670331955,0.006047433707863092,-0.006238976959139109,0.86841881275177,0.0,0.0,0.0,0.0,0.0,0.0,0.0,0.0,0.0,0.9071866869926453,-0.004102034494280815,0.0014307841192930937,0.4206961393356323,0.0,0.062350451946258545,0.0,1014.6224975585938,22.9375,-1.9275847985348963e+34,-5.068364680690865e+36,-9.091352853646175e-16,0.0,1.8006385243856365e+26
138,0.4779999852180481,0.0,-0.001964048482477665,0.03500992804765701,0.03010936826467514,0.02526334673166275,0.023976905271410942,0.03038032352924347,0.0069799828343093395,-0.003915724810212851,0.8692401647567749,0.0,0.0,0.0,0.0,0.0,0.0,0.0,0.0,0.0,0.9070163369178772,-0.003245337400585413,0.002341147046536207,0.4210669994354248,0.0,0.0206158347427845,0.0,1014.625,22.9375,1.80051828481409e-13,-1.6731051206588745,8.572894444531533e+23,0.0,4.850295991571352e-25
138,0.4779999852180481,0.0,0.03219682350754738,0.0023777654860168695,0.15232081711292267,0.02123737707734108,-0.023276668041944504,0.152481809258461,0.008768504485487938,-0.0012886294862255454,0.8702048063278198,0.0,0.0,0.0,0.0,0.0,0.0,0.0,0.0,0.0,0.9068131446838379,-0.0024322515819221735,0.003704182803630829,0.42149999737739563,0.0,0.0206158347427845,0.0,1014.625,22.9375,3.271218533603354e-20,6.31432058195428e-35,-2.2905461908057584e+24,0.0,-1.9563277756395197e+37
138,0.4779999852180481,0.0,-0.01703285425901413,0.031067926436662674,-0.027102507650852203,0.013074703514575958,0.033100858330726624,-0.0268930122256279,0.009401221759617329,-0.0026479968801140785,0.871746301651001,0.0,0.0,0.0,0.0,0.0,0.0,0.0,0.0,0.0,0.9064847230911255,-0.0031847949139773846,0.0037021227180957794,0.422201007604599,0.0,0.0206158347427845,0.0,1014.625,22.9375,-1.4725310802459717,6.179893262449391e-38,-0.0057942504063248634,0.0,3.106029620300036e-25
138,0.4779999852180481,0.0,-0.020349005237221718,0.0008082303684204817,0.09516044706106186,-0.013305896893143654,0.015954237431287766,0.09507107734680176,0.008906249888241291,-0.001629724632948637,0.8727867603302002,0.0,0.0,0.0,0.0,0.0,0.0,0.0,0.0,0.0,0.906267523765564,-0.002620703773573041,0.003691372461616993,0.4226708710193634,0.0,0.0206158347427845,0.0,1014.625,22.9375,-1.9275847985348963e+34,-5.068364680690865e+36,-9.091352853646175e-16,0.0,1.8006385243856365e+26
138,0.4779999852180481,0.0,-0.005797308869659901,0.04433651268482208,-0.07031730562448502,0.030927907675504684,0.03311951085925102,-0.06993076205253601,0.009758386760950089,-0.0026499107480049133,0.8728501796722412,0.0,0.0,0.0,0.0,0.0,0.0,0.0,0.0,0.0,0.9062506556510925,-0.0032631908543407917,0.0038618030957877636,0.4227011501789093,0.0,0.0,0.0,1014.6099853515625,22.9375,1.80051828481409e-13,-1.6731051206588745,8.572894444531533e+23,0.0,4.850295991571352e-25
138,0.4779999852180481,0.0,0.17252717912197113,0.2341776341199875,-0.42400363087654114,0.2933482527732849,0.02044578455388546,-0.42179179191589355,0.007233911659568548,-0.005021561402827501,0.8727864027023315,0.0,0.0,0.0,0.0,0.0,0.0,0.0,0.0,0.0,0.9062657356262207,-0.003804238513112068,0.002216750057414174,0.42267587780952454,0.0,0.0,0.0,1014.6099853515625,22.9375,3.271218533603354e-20,6.31432058195428e-35,-2.2905461908057584e+24,0.0,-1.9563277756395197e+37
138,0.4779999852180481,0.0,-0.219033345580101,-0.05526537075638771,0.24274440109729767,-0.18951255083084106,0.12836191058158875,0.23991899192333221,0.01803809031844139,-0.004313488956540823,0.8570865392684937,0.0,0.0,0.0,0.0,0.0,0.0,0.0,0.0,0.0,0.9095211625099182,-0.005709411110728979,0.007307188585400581,0.4155443608760834,0.0,0.0,0.0,1014.6099853515625,22.9375,-1.4725310802459717,6.179893262449391e-38,-0.0057942504063248634,0.0,3.106029620300036e-25
138,0.4779999852180481,0.0,-0.2743813395500183,0.0035718099679797888,0.04730125516653061,-0.19047461450099945,0.19876684248447418,0.04177528992295265,0.03040849044919014,-0.0012395753292366862,0.797365665435791,0.0,0.0,0.0,0.0,0.0,0.0,0.0,0.0,0.0,0.9214590191841125,-0.006473267916589975,0.013770762830972672,0.38816696405410767,0.0,0.0,0.0,1014.6099853515625,22.9375,-1.9275847985348963e+34,-5.068364680690865e+36,-9.091352853646175e-16,0.0,1.8006385243856365e+26
138,0.4779999852180481,0.0,0.023612549528479576,0.3385127782821655,-0.36411288380622864,0.25256770849227905,0.2438257783651352,-0.35281869769096375,0.049281928688287735,0.002960873069241643,0.6950147151947021,0.0,0.0,0.0,0.0,0.0,0.0,0.0,0.0,0.0,0.9399465322494507,-0.006999272387474775,0.023669781163334846,0.34041574597358704,0.0,0.12470127642154694,0.0,1014.6500244140625,23.0,1.80051828481409e-13,-1.6731051206588745,8.572894444531533e+23,0.0,4.850295991571352e-25
138,0.4779999852180481,0.0,0.030744381248950958,0.45388084650039673,-0.947691023349762,0.34863847494125366,0.337361216545105,-0.9325724244117737,0.07233639061450958,0.022058788686990738,0.5978403091430664,0.0,0.0,0.0,0.0,0.0,0.0,0.0,0.0,0.0,0.9550853967666626,-0.00011504283611429855,0.03780065104365349,0.29389551281929016,0.0,0.12470127642154694,0.0,1014.6500244140625,23.0,3.271218533603354e-20,6.31432058195428e-35,-2.2905461908057584e+24,0.0,-1.9563277756395197e+37
138,0.4779999852180481,0.0,-0.15290038287639618,-0.13088323175907135,-0.24208931624889374,-0.1591310352087021,-0.041951462626457214,-0.26838773488998413,0.15001828968524933,0.012491416186094284,0.5150097608566284,0.0,0.0,0.0,0.0,0.0,0.0,0.0,0.0,0.0,0.9644057154655457,-0.013061529956758022,0.07405295222997665,0.2534937560558319,0.0,0.12470127642154694,0.0,1014.6500244140625,23.0,-1.4725310802459717,6.179893262449391e-38,-0.0057942504063248634,0.0,3.106029620300036e-25
138,0.4779999852180481,0.0,0.26303157210350037,2.222733974456787,0.7264146208763123,1.0667798519134521,1.934846043586731,0.80973219871521,0.061344657093286514,-0.00847712717950344,0.40286940336227417,0.0,0.0,0.0,0.0,0.0,0.0,0.0,0.0,0.0,0.9792807102203369,-0.010286660864949226,0.029199671000242233,0.20010584592819214,0.0,0.12470127642154694,0.0,1014.6500244140625,23.0,-1.9275847985348963e+34,-5.068364680690865e+36,-9.091352853646175e-16,0.0,1.8006385243856365e+26
138,0.4779999852180481,0.0,0.03460218012332916,-0.04363509267568588,-0.09142021089792252,0.021447351202368736,-0.052225105464458466,-0.09094692021608353,0.05501122400164604,-0.010813238099217415,0.37067052721977234,0.0,0.0,0.0,0.0,0.0,0.0,0.0,0.0,0.0,0.9824568033218384,-0.010379903949797153,0.026034951210021973,0.18434903025627136,0.0,-0.20816735923290253,0.0,1014.6325073242188,23.0,1.80051828481409e-13,-1.6731051206588745,8.572894444531533e+23,0.0,4.850295991571352e-25
138,0.4779999852180481,0.0,0.17724566161632538,0.12281420826911926,0.10782619565725327,0.20576311647891998,0.05057733878493309,0.11501449346542358,0.03495622053742409,0.0014337579486891627,0.3699784278869629,0.0,0.0,0.0,0.0,0.0,0.0,0.0,0.0,0.0,0.9827859997749329,-0.002510164398699999,0.017310936003923416,0.18389467895030975,0.0,-0.20816735923290253,0.0,1014.6325073242188,23.0,3.271218533603354e-20,6.31432058195428e-35,-2.2905461908057584e+24,0.0,-1.9563277756395197e+37
138,0.4779999852180481,0.0,0.05374106019735336,-0.11454174667596817,-0.009957351721823215,0.008373767137527466,-0.12631410360336304,-0.009023020975291729,0.027988597750663757,0.005572293885052204,0.3746405839920044,0.0,0.0,0.0,0.0,0.0,0.0,0.0,0.0,0.0,0.9824098944664001,0.0001310967782046646,0.014267850667238235,0.18616870045661926,0.0,-0.20816735923290253,0.0,1014.6325073242188,23.0,-1.4725310802459717,6.179893262449391e-38,-0.0057942504063248634,0.0,3.106029620300036e-25
138,0.4779999852180481,0.0,0.08134812861680984,-0.2429114729166031,-0.08997348695993423,-0.013495891354978085,-0.2562551200389862,-0.08870556205511093,0.025020448490977287,0.006379999220371246,0.3846777081489563,0.0,0.0,0.0,0.0,0.0,0.0,0.0,0.0,0.0,0.9814815521240234,0.0007395828724838793,0.012888936325907707,0.19109922647476196,0.0,-0.20816735923290253,0.0,1014.6325073242188,23.0,-1.9275847985348963e+34,-5.068364680690865e+36,-9.091352853646175e-16,0.0,1.8006385243856365e+26
138,0.4779999852180481,0.0,0.032008491456508636,-0.08886575698852539,-0.1252489537000656,-0.0017852854216471314,-0.09481005370616913,-0.12496571242809296,0.02401663362979889,0.003819655394181609,0.39650455117225647,0.0,0.0,0.0,0.0,0.0,0.0,0.0,0.0,0.0,0.980340301990509,-0.0004927858244627714,0.012148969806730747,0.1969182938337326,0.0,-0.0623500794172287,0.0,1014.6500244140625,23.0,1.80051828481409e-13,-1.6731051206588745,8.572894444531533e+23,0.0,4.850295991571352e-25
138,0.4779999852180481,0.0,-0.048860739916563034,-0.09140074253082275,-0.07250884920358658,-0.07918521761894226,-0.06484092772006989,-0.07432428002357483,0.025643158704042435,0.0036914979573339224,0.4073205888271332,0.0,0.0,0.0,0.0,0.0,0.0,0.0,0.0,0.0,0.979251503944397,-0.0007857218733988702,0.012929558753967285,0.20221436023712158,0.0,-0.0623500794172287,0.0,1014.6500244140625,23.0,3.271218533603354e-20,6.31432058195428e-35,-2.2905461908057584e+24,0.0,-1.9563277756395197e+37
138,0.4779999852180481,0.0,0.0354330874979496,-0.14102007448673248,-0.23837284743785858,-0.01834177039563656,-0.14259004592895508,-0.239361971616745,0.0259922556579113,-0.0030337779317051172,0.4157879650592804,0.0,0.0,0.0,0.0,0.0,0.0,0.0,0.0,0.0,0.9783759117126465,-0.00416642427444458,0.012402914464473724,0.20640046894550323,0.0,-0.0623500794172287,0.0,1014.6500244140625,23.0,-1.4725310802459717,6.179893262449391e-38,-0.0057942504063248634,0.0,3.106029620300036e-25
138,0.4779999852180481,0.0,-0.07204297184944153,-0.022277643904089928,0.11586948484182358,-0.07830201834440231,0.008600160479545593,0.11360783874988556,0.03013451024889946,-0.005280327517539263,0.4222068786621094,0.0,0.0,0.0,0.0,0.0,0.0,0.0,0.0,0.0,0.9776735901832581,-0.005738305859267712,0.014179066754877567,0.20955249667167664,0.0,-0.0623500794172287,0.0,1014.6500244140625,23.0,-1.9275847985348963e+34,-5.068364680690865e+36,-9.091352853646175e-16,0.0,1.8006385243856365e+26
138,0.4779999852180481,0.0,-0.0029547226149588823,-0.022255046293139458,-0.12477973848581314,-0.00898334477096796,-0.018951615318655968,-0.12503549456596375,0.024014629423618317,-0.0002639640588313341,0.43104931712150574,0.0,0.0,0.0,0.0,0.0,0.0,0.0,0.0,0.0,0.9767895936965942,-0.002696751384064555,0.011701059527695179,0.21384523808956146,0.0,-0.20816735923290253,0.0,1014.64501953125,23.0,1.80051828481409e-13,-1.6731051206588745,8.572894444531533e+23,0.0,4.850295991571352e-25
138,0.4779999852180481,0.0,-0.1087179109454155,-0.06779290735721588,-0.028117217123508453,-0.12638185918331146,-0.015789352357387543,-0.031369954347610474,0.025221483781933784,-0.003520981175825,0.4331490695476532,0.0,0.0,0.0,0.0,0.0,0.0,0.0,0.0,0.0,0.9765511751174927,-0.004429019521921873,0.011937580071389675,0.214888796210289,0.0,-0.20816735923290253,0.0,1014.64501953125,23.0,3.271218533603354e-20,6.31432058195428e-35,-2.2905461908057584e+24,0.0,-1.9563277756395197e+37
138,0.4779999852180481,0.0,-0.016697270795702934,0.005432734731584787,0.02649017423391342,-0.013534631580114365,0.011869357898831367,0.026190821081399918,0.025749986991286278,-0.0034132618457078934,0.43465691804885864,0.0,0.0,0.0,0.0,0.0,0.0,0.0,0.0,0.0,0.9763860702514648,-0.004442398436367512,0.012203863821923733,0.2156241238117218,0.0,-0.20816735923290253,0.0,1014.64501953125,23.0,-1.4725310802459717,6.179893262449391e-38,-0.0057942504063248634,0.0,3.106029620300036e-25
138,0.4779999852180481,0.0,-0.020587565377354622,-0.0037048987578600645,-0.05901531130075455,-0.018592581152915955,0.00552744185552001,-0.05953219160437584,0.027433624491095543,-0.002765367738902569,0.4373180866241455,0.0,0.0,0.0,0.0,0.0,0.0,0.0,0.0,0.0,0.9760884046554565,-0.004325005691498518,0.01308992225676775,0.21691781282424927,0.0,-0.20816735923290253,0.0,1014.64501953125,23.0,-1.9275847985348963e+34,-5.068364680690865e+36,-9.091352853646175e-16,0.0,1.8006385243856365e+26
138,0.4779999852180481,0.0,1.4637937545776367,0.8580235838890076,-0.595731794834137,1.7093509435653687,0.05430835112929344,-0.5557949542999268,0.023558026179671288,0.003252397757023573,0.4971049129962921,0.0,0.0,0.0,0.0,0.0,0.0,0.0,0.0,0.0,0.9692016243934631,-0.0013214837526902556,0.011816824786365032,0.2459641546010971,0.0,-0.1669364720582962,0.0,1014.6599731445312,23.0,1.80051828481409e-13,-1.6731051206588745,8.572894444531533e+23,0.0,4.850295991571352e-25
138,0.4779999852180481,0.0,-0.4351736307144165,1.572242259979248,-0.0066728973761200905,0.6741420030593872,1.4854947328567505,-0.012628979980945587,0.005802298430353403,0.006642547436058521,0.696020245552063,0.0,0.0,0.0,0.0,0.0,0.0,0.0,0.0,0.0,0.9400433897972107,0.0021327720023691654,0.0038598624523729086,0.3410140872001648,0.0,-0.1669364720582962,0.0,1014.6599731445312,23.0,3.271218533603354e-20,6.31432058195428e-35,-2.2905461908057584e+24,0.0,-1.9563277756395197e+37
138,0.4779999852180481,0.0,-0.52890944480896,-0.4391322135925293,-0.011257209815084934,-0.6786479353904724,0.1085108071565628,-0.019062623381614685,0.01280184742063284,-0.008151738904416561,0.8511978983879089,0.0,0.0,0.0,0.0,0.0,0.0,0.0,0.0,0.0,0.910750687122345,-0.006354862824082375,0.0041471016593277454,0.4128764569759369,0.0,-0.1669364720582962,0.0,1014.6599731445312,23.0,-1.4725310802459717,6.179893262449391e-38,-0.0057942504063248634,0.0,3.106029620300036e-25
138,0.4779999852180481,0.0,-0.09123232960700989,0.30766746401786804,-0.1580973118543625,0.20606641471385956,0.2470623254776001,-0.15643566846847534,0.00418431730940938,-0.0032392628490924835,0.9828754663467407,0.0,0.0,0.0,0.0,0.0,0.0,0.0,0.0,0.0,0.8816470503807068,-0.002415226073935628,0.0010802773758769035,0.4718933701515198,0.0,-0.2906286418437958,0.0,1014.6624755859375,23.0,-1.9275847985348963e+34,-5.068364680690865e+36,-9.091352853646175e-16,0.0,1.8006385243856365e+26
138,0.4779999852180481,0.0,-0.897955060005188,0.321755975484848,-0.2856903374195099,0.0025687702000141144,0.953822135925293,-0.28577879071235657,-0.0012040769215673208,9.176562161883339e-05,1.2297817468643188,0.0,0.0,0.0,0.0,0.0,0.0,0.0,0.0,0.0,0.8168328404426575,0.000384777580620721,-0.00046530069084838033,0.5768669247627258,0.0,-0.2906286418437958,0.0,1014.6624755859375,23.0,1.80051828481409e-13,-1.6731051206588745,8.572894444531533e+23,0.0,4.850295991571352e-25
138,0.4779999852180481,0.0,0.11362156271934509,-0.4982605278491974,0.30578991770744324,-0.4707733392715454,-0.20274822413921356,0.30321693420410156,0.0017726520309224725,-0.008619764819741249,1.3926268815994263,0.0,0.0,0.0,0.0,0.0,0.0,0.0,0.0,0.0,0.7671988010406494,-0.0038750488311052322,-0.00208431389182806,0.6413877010345459,0.0,-0.2906286418437958,0.0,1014.6624755859375,23.0,3.271218533603354e-20,6.31432058195428e-35,-2.2905461908057584e+24,0.0,-1.9563277756395197e+37
138,0.4779999852180481,0.0,-0.10076446831226349,0.11575865745544434,-0.09316066652536392,0.10200895369052887,0.11661884188652039,-0.09069815278053284,0.008953360840678215,-0.013379547744989395,1.4361103773117065,0.0,0.0,0.0,0.0,0.0,0.0,0.0,0.0,0.0,0.753039538860321,-0.007983110845088959,-0.0010299939895048738,0.6579198837280273,0.0,-0.2906286418437958,0.0,1014.6624755859375,23.0,-1.4725310802459717,6.179893262449391e-38,-0.0057942504063248634,0.0,3.106029620300036e-25
138,0.4779999852180481,0.0,-0.06880595535039902,0.07064614444971085,0.03678985685110092,0.06106787919998169,0.07686607539653778,0.03795745223760605,0.005504576489329338,-0.010784881189465523,1.4426249265670776,0.0,0.0,0.0,0.0,0.0,0.0,0.0,0.0,0.0,0.7509129643440247,-0.0058668553829193115,-0.0014941866975277662,0.6603671312332153,0.0,-0.31174665689468384,0.0,1014.6525268554688,23.0,-1.9275847985348963e+34,-5.068364680690865e+36,-9.091352853646175e-16,0.0,1.8006385243856365e+26
138,0.4779999852180481,0.0,-0.09906812757253647,0.16464856266975403,-0.01485923770815134,0.15069901943206787,0.11958224326372147,-0.011564434505999088,0.013927142135798931,-0.010016254149377346,1.4415597915649414,0.0,0.0,0.0,0.0,0.0,0.0,0.0,0.0,0.0,0.7512375712394714,-0.008358117192983627,0.0019264726433902979,0.6599701046943665,0.0,-0.31174665689468384,0.0,1014.6525268554688,23.0,1.80051828481409e-13,-1.6731051206588745,8.572894444531533e+23,0.0,4.850295991571352e-25
138,0.4779999852180481,0.0,-0.06408371776342392,0.08691610395908356,0.02233787626028061,0.07756242901086807,0.07468094676733017,0.0238063745200634,0.010855764150619507,-0.008362180553376675,1.4399259090423584,0.0,0.0,0.0,0.0,0.0,0.0,0.0,0.0,0.0,0.7517945170402527,-0.006722277961671352,0.001324034878052771,0.6593558192253113,0.0,-0.31174665689468384,0.0,1014.6525268554688,23.0,3.271218533603354e-20,6.31432058195428e-35,-2.2905461908057584e+24,0.0,-1.9563277756395197e+37
138,0.4779999852180481,0.0,-0.08788029849529266,0.13189075887203217,-0.02854255586862564,0.11945115774869919,0.10475977510213852,-0.02625252678990364,0.013668237254023552,-0.006301972549408674,1.4378039836883545,0.0,0.0,0.0,0.0,0.0,0.0,0.0,0.0,0.0,0.7524908185005188,-0.006871769670397043,0.0030677798204123974,0.6585537195205688,0.0,-0.31174665689468384,0.0,1014.6525268554688,23.0,-1.4725310802459717,6.179893262449391e-38,-0.0057942504063248634,0.0,3.106029620300036e-25
138,0.4779999852180481,0.0,-0.030521176755428314,0.14046405255794525,-0.021229781210422516,0.13530799746513367,0.04944752901792526,-0.018940424546599388,0.01455478835850954,-0.006518076173961163,1.4345015287399292,0.0,0.0,0.0,0.0,0.0,0.0,0.0,0.0,0.0,0.7535730600357056,-0.00723947724327445,0.003342156996950507,0.6573095917701721,0.0,-0.22928555309772491,0.0,1014.6875,23.0,-1.9275847985348963e+34,-5.068364680690865e+36,-9.091352853646175e-16,0.0,1.8006385243856365e+26
138,0.4779999852180481,0.0,-0.022482052445411682,0.13415107131004333,-0.013880767859518528,0.12993280589580536,0.040858492255210876,-0.0119324354454875,0.012539088726043701,-0.007840419188141823,1.432476282119751,0.0,0.0,0.0,0.0,0.0,0.0,0.0,0.0,0.0,0.7542412281036377,-0.0070731001906096935,0.0021551959216594696,0.6565498113632202,0.0,-0.22928555309772491,0.0,1014.6875,23.0,1.80051828481409e-13,-1.6731051206588745,8.572894444531533e+23,0.0,4.850295991571352e-25
138,0.4779999852180481,0.0,-0.03911525011062622,0.12005041539669037,-0.06405166536569595,0.11406996846199036,0.055920496582984924,-0.06249275058507919,0.010185390710830688,-0.007178958971053362,1.43091881275177,0.0,0.0,0.0,0.0,0.0,0.0,0.0,0.0,0.0,0.7547623515129089,-0.006049862131476402,0.0014893743209540844,0.6559627056121826,0.0,-0.22928555309772491,0.0,1014.6875,23.0,3.271218533603354e-20,6.31432058195428e-35,-2.2905461908057584e+24,0.0,-1.9563277756395197e+37
138,0.4779999852180481,0.0,-0.03025391325354576,0.16836798191070557,-0.028753317892551422,0.16275955736637115,0.05396938696503639,-0.02619120478630066,0.01295927818864584,-0.00844651460647583,1.4289854764938354,0.0,0.0,0.0,0.0,0.0,0.0,0.0,0.0,0.0,0.7553821206092834,-0.007435899693518877,0.002127682091668248,0.6552327275276184,0.0,-0.22928555309772491,0.0,1014.6875,23.0,-1.4725310802459717,6.179893262449391e-38,-0.0057942504063248634,0.0,3.106029620300036e-25
138,0.4779999852180481,0.0,-0.08709511160850525,0.09785006195306778,0.029301606118679047,0.08408460021018982,0.09995894134044647,0.030927052721381187,0.011522014625370502,-0.006544677074998617,1.4276902675628662,0.0,0.0,0.0,0.0,0.0,0.0,0.0,0.0,0.0,0.7558180093765259,-0.006245305761694908,0.002211927203461528,0.6547422409057617,0.0,-0.5199077725410461,0.0,1014.6849975585938,23.0625,-1.9275847985348963e+34,-5.068364680690865e+36,-9.091352853646175e-16,0.0,1.8006385243856365e+26
138,0.4779999852180481,0.0,-0.03492044657468796,0.1016593649983406,-0.02791980654001236,0.09589115530252457,0.04938266798853874,-0.026450352743268013,0.011994793079793453,-0.00651122722774744,1.426143765449524,0.0,0.0,0.0,0.0,0.0,0.0,0.0,0.0,0.0,0.7563225030899048,-0.006385574582964182,0.0024064905010163784,0.6541572213172913,0.0,-0.5199077725410461,0.0,1014.6849975585938,23.0625,1.80051828481409e-13,-1.6731051206588745,8.572894444531533e+23,0.0,4.850295991571352e-25
138,0.4779999852180481,0.0,-0.027359042316675186,0.15228059887886047,0.057703934609889984,0.1460786759853363,0.04892326518893242,0.05945371091365814,0.009788736701011658,-0.006464140955358744,1.4242174625396729,0.0,0.0,0.0,0.0,0.0,0.0,0.0,0.0,0.0,0.7569593191146851,-0.005644705146551132,0.001593048102222383,0.6534296274185181,0.0,-0.5199077725410461,0.0,1014.6849975585938,23.0625,3.271218533603354e-20,6.31432058195428e-35,-2.2905461908057584e+24,0.0,-1.9563277756395197e+37
138,0.4779999852180481,0.0,-0.3015369772911072,-1.6621947288513184,-0.009108581580221653,-1.6882004737854004,0.05213618278503418,-0.03333151713013649,0.014533471316099167,-0.006059414707124233,1.4220861196517944,0.0,0.0,0.0,0.0,0.0,0.0,0.0,0.0,0.0,0.7576404809951782,-0.00703788548707962,0.0035286243073642254,0.6526181101799011,0.0,-0.5199077725410461,0.0,1014.6849975585938,23.0625,-1.4725310802459717,6.179893262449391e-38,-0.0057942504063248634,0.0,3.106029620300036e-25
138,0.4779999852180481,0.0,-0.017219727858901024,-0.48482224345207214,0.2470521479845047,-0.48546987771987915,-0.05780228599905968,0.23949292302131653,0.014936692081391811,-0.0058282408863306046,1.418759822845459,0.0,0.0,0.0,0.0,0.0,0.0,0.0,0.0,0.0,0.7587242126464844,-0.007075623143464327,0.0037685853894799948,0.6513562798500061,0.0,-0.4987901747226715,0.0,1014.655029296875,23.0,-1.9275847985348963e+34,-5.068364680690865e+36,-9.091352853646175e-16,0.0,1.8006385243856365e+26
138,0.4779999852180481,0.0,-0.12116889655590057,-0.44763633608818054,-0.09857086092233658,-0.4623086750507355,0.015518476255238056,-0.10393515229225159,0.012169611640274525,-0.018452055752277374,1.3357720375061035,0.0,0.0,0.0,0.0,0.0,0.0,0.0,0.0,0.0,0.7850466966629028,-0.011011708527803421,-0.0009365564910694957,0.6193313002586365,0.0,-0.4987901747226715,0.0,1014.655029296875,23.0,1.80051828481409e-13,-1.6731051206588745,8.572894444531533e+23,0.0,4.850295991571352e-25
138,0.4779999852180481,0.0,0.40516895055770874,-0.5338561534881592,-0.2946644127368927,-0.3209887444972992,-0.5796619057655334,-0.31135284900665283,0.01560657937079668,-0.019983461126685143,1.1565630435943604,0.0,0.0,0.0,0.0,0.0,0.0,0.0,0.0,0.0,0.8372897505760193,-0.012631606310606003,0.001073078135959804,0.5466047525405884,0.0,-0.4987901747226715,0.0,1014.655029296875,23.0,3.271218533603354e-20,6.31432058195428e-35,-2.2905461908057584e+24,0.0,-1.9563277756395197e+37
138,0.4779999852180481,0.0,-0.3119281232357025,0.6139159798622131,-0.09154132753610611,0.3130020797252655,0.6171872615814209,-0.06060875579714775,0.0209746602922678,-0.03959855064749718,0.9389446377754211,0.0,0.0,0.0,0.0,0.0,0.0,0.0,0.0,0.0,0.8914856910705566,-0.0223985742777586,0.00039432011544704437,0.45248550176620483,0.0,-0.4987901747226715,0.0,1014.655029296875,23.0,-1.4725310802459717,6.179893262449391e-38,-0.0057942504063248634,0.0,3.106029620300036e-25
138,0.4779999852180481,0.0,-0.044740915298461914,-1.1393647193908691,-1.4414196014404297,-0.7198696732521057,-0.7823926210403442,-1.4991456270217896,0.04453405365347862,-0.030102023854851723,0.7198903560638428,0.0,0.0,0.0,0.0,0.0,0.0,0.0,0.0,0.0,0.9354562163352966,-0.02192385494709015,0.015536299906671047,0.35240787267684937,0.0,-0.24939808249473572,0.0,1014.6425170898438,23.0625,-1.9275847985348963e+34,-5.068364680690865e+36,-9.091352853646175e-16,0.0,1.8006385243856365e+26
138,0.4779999852180481,0.0,-0.1825495958328247,2.072389602661133,0.738923966884613,0.6550038456916809,1.9485141038894653,0.8051786422729492,0.029514817520976067,-0.023801300674676895,0.4193675220012665,0.0,0.0,0.0,0.0,0.0,0.0,0.0,0.0,0.0,0.9778803586959839,-0.014709845185279846,0.011955900117754936,0.20828408002853394,0.0,-0.24939808249473572,0.0,1014.6425170898438,23.0625,1.80051828481409e-13,-1.6731051206588745,8.572894444531533e+23,0.0,4.850295991571352e-25
138,0.4779999852180481,0.0,-1.0374162197113037,-0.3554799258708954,1.3951148986816406,-1.1320480108261108,-0.09502111375331879,1.363205909729004,0.027350731194019318,-0.01743122562766075,0.2651059925556183,0.0,0.0,0.0,0.0,0.0,0.0,0.0,0.0,0.0,0.9910775423049927,-0.010445493273437023,0.012402745895087719,0.1322653740644455,0.0,-0.24939808249473572,0.0,1014.6425170898438,23.0625,3.271218533603354e-20,6.31432058195428e-35,-2.2905461908057584e+24,0.0,-1.9563277756395197e+37
138,0.4779999852180481,0.0,-0.5905159115791321,-0.27563729882240295,-0.3802471458911896,-0.6046785712242126,-0.21408167481422424,-0.39723584055900574,0.02549254335463047,-0.006730988156050444,0.0976492166519165,0.0,0.0,0.0,0.0,0.0,0.0,0.0,0.0,0.0,0.9987152814865112,-0.003983256872743368,0.012566478922963142,0.048843614757061005,0.0,-0.24939808249473572,0.0,1014.6425170898438,23.0625,-1.4725310802459717,6.179893262449391e-38,-0.0057942504063248634,0.0,3.106029620300036e-25
138,0.4779999852180481,0.0,0.49244290590286255,0.5365340709686279,-0.4463367760181427,0.49574536085128784,0.5370410084724426,-0.44203683733940125,0.016910040751099586,0.007469893433153629,-0.007746193092316389,0.0,0.0,0.0,0.0,0.0,0.0,0.0,0.0,0.0,0.9999454617500305,0.0037675073835998774,0.008440366946160793,-0.0039044837467372417,0.0,-0.14581814408302307,0.0,1014.66748046875,23.0625,-1.9275847985348963e+34,-5.068364680690865e+36,-9.091352853646175e-16,0.0,1.8006385243856365e+26
138,0.4779999852180481,0.0,-0.22599762678146362,0.05374922230839729,-0.0988483801484108,-0.22447103261947632,0.05171249434351921,-0.103307344019413,0.015200073830783367,0.01965143345296383,-7.192584598669782e-05,0.0,0.0,0.0,0.0,0.0,0.0,0.0,0.0,0.0,0.9999186396598816,0.009825506247580051,0.007599275559186935,-0.00011063419515267015,0.0,-0.14581814408302307,0.0,1014.66748046875,23.0625,1.80051828481409e-13,-1.6731051206588745,8.572894444531533e+23,0.0,4.850295991571352e-25
138,0.4779999852180481,0.0,-0.09567280858755112,-0.26671963930130005,0.02112670987844467,-0.09963022172451019,-0.264568567276001,0.02854624204337597,0.011087234131991863,0.0321647934615612,0.014020941220223904,0.0,0.0,0.0,0.0,0.0,0.0,0.0,0.0,0.0,0.9998270869255066,0.016042135655879974,0.005655496381223202,0.006920220796018839,0.0,-0.14581814408302307,0.0,1014.66748046875,23.0625,3.271218533603354e-20,6.31432058195428e-35,-2.2905461908057584e+24,0.0,-1.9563277756395197e+37
138,0.4779999852180481,0.0,-0.2058631032705307,-0.39466145634651184,-0.0325956717133522,-0.2175987958908081,-0.38925883173942566,-0.018017718568444252,0.009302480146288872,0.04270898550748825,0.030785102397203445,0.0,0.0,0.0,0.0,0.0,0.0,0.0,0.0,0.0,0.9996399879455566,0.021278442814946175,0.004978289362043142,0.015288894064724445,0.0,-0.3529769778251648,0.0,1014.6599731445312,23.0625,-1.4725310802459717,6.179893262449391e-38,-0.0057942504063248634,0.0,3.106029620300036e-25
138,0.4779999852180481,0.0,-0.2802407443523407,-0.45190009474754333,-0.005488433875143528,-0.3018753230571747,-0.43753114342689514,0.01454976573586464,0.008026341907680035,0.05131533369421959,0.048755623400211334,0.0,0.0,0.0,0.0,0.0,0.0,0.0,0.0,0.0,0.9993640780448914,0.02554912492632866,0.004636003635823727,0.024264147505164146,0.0,-0.3529769778251648,0.0,1014.6599731445312,23.0625,-1.9275847985348963e+34,-5.068364680690865e+36,-9.091352853646175e-16,0.0,1.8006385243856365e+26
138,0.4779999852180481,0.0,-0.2169361710548401,-0.5689301490783691,-0.13395504653453827,-0.2518734037876129,-0.5609257817268372,-0.10296737402677536,0.008734414353966713,0.05953342095017433,0.06431866437196732,0.0,0.0,0.0,0.0,0.0,0.0,0.0,0.0,0.0,0.999030590057373,0.029606156051158905,0.0053199781104922295,0.03200919181108475,0.0,-0.3529769778251648,0.0,1014.6599731445312,23.0625,1.80051828481409e-13,-1.6731051206588745,8.572894444531533e+23,0.0,4.850295991571352e-25
138,0.4779999852180481,0.0,-0.16274599730968475,-0.5503219962120056,-0.1189747229218483,-0.20655664801597595,-0.5416320562362671,-0.08636379987001419,0.007497391197830439,0.06343545019626617,0.08233872056007385,0.0,0.0,0.0,0.0,0.0,0.0,0.0,0.0,0.0,0.998643696308136,0.031530965119600296,0.005048838444054127,0.04101778566837311,0.0,-0.3529769778251648,0.0,1014.6599731445312,23.0625,3.271218533603354e-20,6.31432058195428e-35,-2.2905461908057584e+24,0.0,-1.9563277756395197e+37
138,0.4779999852180481,0.0,-0.09581161290407181,-0.6028748750686646,0.028104744851589203,-0.15812326967716217,-0.5866392254829407,0.06536824256181717,0.006578746251761913,0.06510286033153534,0.10410714149475098,0.0,0.0,0.0,0.0,0.0,0.0,0.0,0.0,0.0,0.9981124401092529,0.0323302298784256,0.004976523108780384,0.05189508944749832,0.0,-0.2906286418437958,0.0,1014.655029296875,23.0625,-1.4725310802459717,6.179893262449391e-38,-0.0057942504063248634,0.0,3.106029620300036e-25
138,0.4779999852180481,0.0,-0.1341012865304947,-0.5311779379844666,0.03388115018606186,-0.19993336498737335,-0.5069188475608826,0.06584762036800385,0.007440701127052307,0.06576042622327805,0.1258017122745514,0.0,0.0,0.0,0.0,0.0,0.0,0.0,0.0,0.0,0.9974794983863831,0.032575178891420364,0.005777427926659584,0.06270264089107513,0.0,-0.2906286418437958,0.0,1014.655029296875,23.0625,-1.9275847985348963e+34,-5.068364680690865e+36,-9.091352853646175e-16,0.0,1.8006385243856365e+26
138,0.4779999852180481,0.0,-0.07090500742197037,-0.6130091547966003,-0.0861692801117897,-0.15954619646072388,-0.6002630591392517,-0.0495542548596859,0.011566237546503544,0.06429595500230789,0.14805127680301666,0.0,0.0,0.0,0.0,0.0,0.0,0.0,0.0,0.0,0.9967389106750488,0.03162625432014465,0.00814143568277359,0.07373291254043579,0.0,-0.2906286418437958,0.0,1014.655029296875,23.0625,1.80051828481409e-13,-1.6731051206588745,8.572894444531533e+23,0.0,4.850295991571352e-25
138,0.4779999852180481,0.0,-0.07604289799928665,-0.5255848169326782,0.01980491727590561,-0.16387586295604706,-0.5031219124794006,0.049219369888305664,0.010390696115791798,0.06169964000582695,0.16963154077529907,0.0,0.0,0.0,0.0,0.0,0.0,0.0,0.0,0.0,0.9959272146224976,0.030293598771095276,0.007787161972373724,0.08451264351606369,0.0,-0.2906286418437958,0.0,1014.655029296875,23.0625,3.271218533603354e-20,6.31432058195428e-35,-2.2905461908057584e+24,0.0,-1.9563277756395197e+37
138,0.4779999852180481,0.0,-0.06585095822811127,-0.5770941972732544,-0.012079277075827122,-0.17416946589946747,-0.5539335012435913,0.018353436142206192,0.010072456672787666,0.05808413401246071,0.1911660134792328,0.0,0.0,0.0,0.0,0.0,0.0,0.0,0.0,0.0,0.9950127601623535,0.02842450514435768,0.007782392669469118,0.09525009244680405,0.0,-0.24939808249473572,0.0,1014.6699829101562,23.0625,-1.4725310802459717,6.179893262449391e-38,-0.0057942504063248634,0.0,3.106029620300036e-25
138,0.4779999852180481,0.0,0.032554127275943756,-0.5260677933692932,0.046173058450222015,-0.07874013483524323,-0.5180332064628601,0.07332081347703934,0.009554816409945488,0.05367642268538475,0.21091718971729279,0.0,0.0,0.0,0.0,0.0,0.0,0.0,0.0,0.0,0.9940842390060425,0.026182783767580986,0.0075738513842225075,0.10509619116783142,0.0,-0.24939808249473572,0.0,1014.6699829101562,23.0625,-1.9275847985348963e+34,-5.068364680690865e+36,-9.091352853646175e-16,0.0,1.8006385243856365e+26
138,0.4779999852180481,0.0,-0.09874270856380463,-0.44405534863471985,0.017346344888210297,-0.19791828095912933,-0.4083750247955322,0.035928331315517426,0.010579588823020458,0.05053704231977463,0.2309040129184723,0.0,0.0,0.0,0.0,0.0,0.0,0.0,0.0,0.0,0.9930229783058167,0.02448800951242447,0.008163361810147762,0.11502405256032944,0.0,-0.24939808249473572,0.0,1014.6699829101562,23.0625,1.80051828481409e-13,-1.6731051206588745,8.572894444531533e+23,0.0,4.850295991571352e-25
138,0.4779999852180481,0.0,-0.07735452800989151,-0.4133508503437042,-0.05342677980661392,-0.1770678162574768,-0.3833344578742981,-0.037359416484832764,0.011242940090596676,0.04724222794175148,0.2512243986129761,0.0,0.0,0.0,0.0,0.0,0.0,0.0,0.0,0.0,0.991841197013855,0.022728286683559418,0.008534586988389492,0.12511295080184937,0.0,-0.24939808249473572,0.0,1014.6699829101562,23.0625,3.271218533603354e-20,6.31432058195428e-35,-2.2905461908057584e+24,0.0,-1.9563277756395197e+37
138,0.4779999852180481,0.0,-0.005304230377078056,-0.3974185287952423,-0.02547840029001236,-0.11160271614789963,-0.38217297196388245,-0.01023456733673811,0.0120640704408288,0.04345367103815079,0.2721051573753357,0.0,0.0,0.0,0.0,0.0,0.0,0.0,0.0,0.0,0.9905208349227905,0.0207059346139431,0.008921455591917038,0.13546834886074066,0.0,-0.3740948736667633,0.0,1014.6624755859375,23.0625,-1.4725310802459717,6.179893262449391e-38,-0.0057942504063248634,0.0,3.106029620300036e-25
138,0.4779999852180481,0.0,0.01836789771914482,-0.3790373206138611,0.046702347695827484,-0.09222306311130524,-0.3660662770271301,0.06062807887792587,0.012577186338603497,0.04107315465807915,0.2923294007778168,0.0,0.0,0.0,0.0,0.0,0.0,0.0,0.0,0.0,0.9891234636306763,0.0193999744951725,0.009210974909365177,0.1454828679561615,0.0,-0.3740948736667633,0.0,1014.6624755859375,23.0625,-1.9275847985348963e+34,-5.068364680690865e+36,-9.091352853646175e-16,0.0,1.8006385243856365e+26
138,0.4779999852180481,0.0,-0.0713551938533783,-0.32308056950569153,-0.0420704260468483,-0.1663212776184082,-0.2871429920196533,-0.03356780856847763,0.014540618285536766,0.03814262896776199,0.31153813004493713,0.0,0.0,0.0,0.0,0.0,0.0,0.0,0.0,0.0,0.9877040982246399,0.017710981890559196,0.010139396414160728,0.1549699753522873,0.0,-0.3740948736667633,0.0,1014.6624755859375,23.0625,1.80051828481409e-13,-1.6731051206588745,8.572894444531533e+23,0.0,4.850295991571352e-25
138,0.4779999852180481,0.0,0.0156841017305851,-0.19144971668720245,-0.04062942415475845,-0.04661531373858452,-0.18748365342617035,-0.03501413017511368,0.015036330558359623,0.03382572904229164,0.3301708400249481,0.0,0.0,0.0,0.0,0.0,0.0,0.0,0.0,0.0,0.9862521886825562,0.015446262434124947,0.010194031521677971,0.1641823649406433,0.0,-0.3740948736667633,0.0,1014.6624755859375,23.0625,3.271218533603354e-20,6.31432058195428e-35,-2.2905461908057584e+24,0.0,-1.9563277756395197e+37
138,0.4779999852180481,0.0,-0.12788118422031403,-0.2593180537223816,0.01708122342824936,-0.2089887112379074,-0.19949987530708313,0.020330820232629776,0.011648574844002724,0.028449490666389465,0.34878894686698914,0.0,0.0,0.0,0.0,0.0,0.0,0.0,0.0,0.0,0.9847257137298584,0.012997733429074287,0.00820338074117899,0.17340902984142303,0.0,-0.31174665689468384,0.0,1014.64501953125,23.0625,-1.4725310802459717,6.179893262449391e-38,-0.0057942504063248634,0.0,3.106029620300036e-25
138,0.4779999852180481,0.0,-0.048799823969602585,-0.2517384886741638,-0.07622341066598892,-0.13428427278995514,-0.21966125071048737,-0.07265802472829819,0.017080135643482208,0.026844065636396408,0.3657536506652832,0.0,0.0,0.0,0.0,0.0,0.0,0.0,0.0,0.0,0.9832169413566589,0.011644345708191395,0.010837581939995289,0.1817227005958557,0.0,-0.31174665689468384,0.0,1014.64501953125,23.0625,-1.9275847985348963e+34,-5.068364680690865e+36,-9.091352853646175e-16,0.0,1.8006385243856365e+26
138,0.4779999852180481,0.0,0.005597920157015324,-0.17494839429855347,-0.018899954855442047,-0.05985765531659126,-0.1648104190826416,-0.015797652304172516,0.0166168250143528,0.024906346574425697,0.3829621970653534,0.0,0.0,0.0,0.0,0.0,0.0,0.0,0.0,0.0,0.9816291332244873,0.010643718764185905,0.01052571926265955,0.1901894509792328,0.0,-0.31174665689468384,0.0,1014.64501953125,23.0625,1.80051828481409e-13,-1.6731051206588745,8.572894444531533e+23,0.0,4.850295991571352e-25
138,0.4779999852180481,0.0,-0.03962014243006706,-0.0988624319434166,-0.07441810518503189,-0.0737614557147026,-0.07734997570514679,-0.07387518137693405,0.01592976227402687,0.022570541128516197,0.39954492449760437,0.0,0.0,0.0,0.0,0.0,0.0,0.0,0.0,0.0,0.9800320863723755,0.00947970524430275,0.010045318864285946,0.19833849370479584,0.0,-0.31174665689468384,0.0,1014.64501953125,23.0625,3.271218533603354e-20,6.31432058195428e-35,-2.2905461908057584e+24,0.0,-1.9563277756395197e+37
138,0.4779999852180481,0.0,0.029278215020895004,-0.18323326110839844,-0.05529884248971939,-0.045977551490068436,-0.18047544360160828,-0.05294976010918617,0.01803482510149479,0.017705386504530907,0.41443169116973877,0.0,0.0,0.0,0.0,0.0,0.0,0.0,0.0,0.0,0.9785418510437012,0.006807694677263498,0.010645290836691856,0.2056407332420349,0.0,-0.1669364720582962,0.0,1014.635009765625,23.0625,-1.4725310802459717,6.179893262449391e-38,-0.0057942504063248634,0.0,3.106029620300036e-25
138,0.4779999852180481,0.0,-0.003637515241280198,-0.1284206509590149,-0.010939636267721653,-0.05625627189874649,-0.11555997282266617,-0.010277371853590012,0.01845143549144268,0.014739972539246082,0.4267650246620178,0.0,0.0,0.0,0.0,0.0,0.0,0.0,0.0,0.0,0.9772624969482422,0.005248806439340115,0.01057677622884512,0.21168482303619385,0.0,-0.1669364720582962,0.0,1014.635009765625,23.0625,-1.9275847985348963e+34,-5.068364680690865e+36,-9.091352853646175e-16,0.0,1.8006385243856365e+26
138,0.4779999852180481,0.0,-0.0009125126525759697,-0.047119952738285065,-0.03874591737985611,-0.01998685486614704,-0.04279186204075813,-0.0386224202811718,0.021423541009426117,0.013173285871744156,0.4382482171058655,0.0,0.0,0.0,0.0,0.0,0.0,0.0,0.0,0.0,0.976022481918335,0.004100320395082235,0.011886919848620892,0.2172878384590149,0.0,-0.1669364720582962,0.0,1014.635009765625,23.0625,1.80051828481409e-13,-1.6731051206588745,8.572894444531533e+23,0.0,4.850295991571352e-25
138,0.4779999852180481,0.0,-0.0761830061674118,0.08604680746793747,-0.09403518587350845,-0.029319018125534058,0.10938240587711334,-0.09605228900909424,0.02193688601255417,0.012293949723243713,0.44802749156951904,0.0,0.0,0.0,0.0,0.0,0.0,0.0,0.0,0.0,0.9749475717544556,0.0035564634017646313,0.01205943152308464,0.2220606505870819,0.0,-0.1669364720582962,0.0,1014.635009765625,23.0625,3.271218533603354e-20,6.31432058195428e-35,-2.2905461908057584e+24,0.0,-1.9563277756395197e+37
138,0.4779999852180481,0.0,0.00918287131935358,-0.003352696541696787,-0.06737331300973892,0.00831759162247181,-0.007884489372372627,-0.0671066865324974,0.0228485856205225,0.012540794909000397,0.45429977774620056,0.0,0.0,0.0,0.0,0.0,0.0,0.0,0.0,0.0,0.9742417335510254,0.0035361896734684706,0.01254240795969963,0.22511173784732819,0.0,-0.08346857130527496,0.0,1014.6599731445312,23.0625,-1.4725310802459717,6.179893262449391e-38,-0.0057942504063248634,0.0,3.106029620300036e-25
138,0.4779999852180481,0.0,-0.011787362396717072,-0.016435742378234863,-0.03729823976755142,-0.01680953986942768,-0.009804356843233109,-0.03770303726196289,0.02761581912636757,0.007603597827255726,0.45870253443717957,0.0,0.0,0.0,0.0,0.0,0.0,0.0,0.0,0.0,0.9737222194671631,0.0005628077196888626,0.014310101978480816,0.2272704690694809,0.0,-0.08346857130527496,0.0,1014.6599731445312,23.0625,-1.9275847985348963e+34,-5.068364680690865e+36,-9.091352853646175e-16,0.0,1.8006385243856365e+26
138,0.4779999852180481,0.0,-0.01981474459171295,-0.0010154680348932743,-0.05110744386911392,-0.01665434055030346,0.00764006981626153,-0.05167049542069435,0.029098743572831154,0.007288377732038498,0.46713608503341675,0.0,0.0,0.0,0.0,0.0,0.0,0.0,0.0,0.0,0.9727457165718079,0.0001775137207005173,0.01499712560325861,0.23137161135673523,0.0,-0.08346857130527496,0.0,1014.6599731445312,23.0625,1.80051828481409e-13,-1.6731051206588745,8.572894444531533e+23,0.0,4.850295991571352e-25
138,0.4779999852180481,0.0,0.04398481175303459,0.04235368221998215,-0.053672827780246735,0.05979660525918007,0.017426999285817146,-0.0522477962076664,0.026641612872481346,0.0084883663803339,0.4695046842098236,0.0,0.0,0.0,0.0,0.0,0.0,0.0,0.0,0.0,0.9724862575531006,0.0010290384525433183,0.013942105695605278,0.23252348601818085,0.0,-0.2906286418437958,0.0,1014.6400146484375,23.0625,3.271218533603354e-20,6.31432058195428e-35,-2.2905461908057584e+24,0.0,-1.9563277756395197e+37
138,0.4779999852180481,0.0,-0.01716252975165844,-0.009842674247920513,-0.059318579733371735,-0.01821041665971279,-0.0013074639718979597,-0.05980580300092697,0.0260056983679533,0.005268031265586615,0.47052356600761414,0.0,0.0,0.0,0.0,0.0,0.0,0.0,0.0,0.0,0.9723719358444214,-0.00046962089254520833,0.01325824111700058,0.2330428510904312,0.0,-0.2906286418437958,0.0,1014.6400146484375,23.0625,-1.4725310802459717,6.179893262449391e-38,-0.0057942504063248634,0.0,3.106029620300036e-25
138,0.4779999852180481,0.0,-0.06569606810808182,0.03877061605453491,-0.0724668875336647,-0.03895008936524391,0.06394844502210617,-0.07391813397407532,0.026820439845323563,0.005935162305831909,0.4716370403766632,0.0,0.0,0.0,0.0,0.0,0.0,0.0,0.0,0.0,0.9722370505332947,-0.0002478811366017908,0.013731952756643295,0.23357723653316498,0.0,-0.2906286418437958,0.0,1014.6400146484375,23.0625,-1.9275847985348963e+34,-5.068364680690865e+36,-9.091352853646175e-16,0.0,1.8006385243856365e+26
138,0.4779999852180481,0.0,-0.04880928248167038,0.07455654442310333,-0.015620269812643528,-0.00906355120241642,0.08850245177745819,-0.016433272510766983,0.026940321549773216,0.006360209546983242,0.4729725122451782,0.0,0.0,0.0,0.0,0.0,0.0,0.0,0.0,0.0,0.9720802307128906,-6.450466753449291e-05,0.013839827850461006,0.23422309756278992,0.0,-0.2906286418437958,0.0,1014.6400146484375,23.0625,1.80051828481409e-13,-1.6731051206588745,8.572894444531533e+23,0.0,4.850295991571352e-25
138,0.4779999852180481,0.0,-0.02101416327059269,-0.019727490842342377,-0.03794196993112564,-0.026746109127998352,-0.007940372452139854,-0.038625407963991165,0.0251335296779871,7.78622052166611e-05,0.47483763098716736,0.0,0.0,0.0,0.0,0.0,0.0,0.0,0.0,0.0,0.9718677997589111,-0.0029177337419241667,0.012223128229379654,0.23517465591430664,0.0,-0.12469978630542755,0.0,1014.6799926757812,23.0625,3.271218533603354e-20,6.31432058195428e-35,-2.2905461908057584e+24,0.0,-1.9563277756395197e+37
138,0.4779999852180481,0.0,-0.05150933191180229,0.029360821470618248,-0.015701331198215485,-0.031769126653671265,0.049715783447027206,-0.01675717905163765,0.026087215170264244,0.0044553750194609165,0.478803426027298,0.0,0.0,0.0,0.0,0.0,0.0,0.0,0.0,0.0,0.971397876739502,-0.0009288773871958256,0.013199450448155403,0.23707148432731628,0.0,-0.12469978630542755,0.0,1014.6799926757812,23.0625,-1.4725310802459717,6.179893262449391e-38,-0.0057942504063248634,0.0,3.106029620300036e-25
138,0.4779999852180481,0.0,0.021316086873412132,0.07556883990764618,-0.10470203310251236,0.056141652166843414,0.05635910481214523,-0.10391837358474731,0.021134058013558388,0.006709762383252382,0.4824185073375702,0.0,0.0,0.0,0.0,0.0,0.0,0.0,0.0,0.0,0.9709946513175964,0.0007333856774494052,0.0110622588545084,0.23882697522640228,0.0,-0.12469978630542755,0.0,1014.6799926757812,23.0625,-1.9275847985348963e+34,-5.068364680690865e+36,-9.091352853646175e-16,0.0,1.8006385243856365e+26
138,0.4779999852180481,0.0,-0.021431470289826393,0.09973158687353134,-0.14559464156627655,0.031169094145298004,0.09664744883775711,-0.14591346681118011,0.02444995753467083,0.010661939159035683,0.4858383536338806,0.0,0.0,0.0,0.0,0.0,0.0,0.0,0.0,0.0,0.9705653190612793,0.0022335618268698454,0.013147826306521893,0.24045147001743317,0.0,-0.12469978630542755,0.0,1014.6799926757812,23.0625,1.80051828481409e-13,-1.6731051206588745,8.572894444531533e+23,0.0,4.850295991571352e-25
138,0.4779999852180481,0.0,-0.1320209801197052,-2.0049314498901367,3.8433008193969727,-1.0445606708526611,-1.6845089197158813,3.857348680496216,-0.015776539221405983,-0.0017120508709922433,0.5167533159255981,0.0,0.0,0.0,0.0,0.0,0.0,0.0,0.0,0.0,0.9667731523513794,0.001187948975712061,-0.007845094427466393,0.25549575686454773,0.0,-0.4575604498386383,0.0,1014.6749877929688,23.0625,3.271218533603354e-20,6.31432058195428e-35,-2.2905461908057584e+24,0.0,-1.9563277756395197e+37
138,0.4779999852180481,0.0,0.016515113413333893,-0.20240971446037292,0.08745285123586655,-0.07998092472553253,-0.18806906044483185,0.08439606428146362,-0.08231907337903976,-0.053587183356285095,0.5266870260238647,0.0,0.0,0.0,0.0,0.0,0.0,0.0,0.0,0.0,0.9646438956260681,-0.015137342736124992,-0.04668312892317772,0.2589309513568878,0.0,-0.4575604498386383,0.0,1014.6749877929688,23.0625,-1.4725310802459717,6.179893262449391e-38,-0.0057942504063248634,0.0,3.106029620300036e-25
138,0.4779999852180481,0.0,0.1545325219631195,0.30326950550079346,-0.16762642562389374,0.2684200406074524,0.2055976688861847,-0.17213113605976105,-0.12099012732505798,-0.15323223173618317,0.5529438853263855,0.0,0.0,0.0,0.0,0.0,0.0,0.0,0.0,0.0,0.9587066769599915,-0.057044945657253265,-0.07884649187326431,0.2672117054462433,0.0,-0.4575604498386383,0.0,1014.6749877929688,23.0625,-1.9275847985348963e+34,-5.068364680690865e+36,-9.091352853646175e-16,0.0,1.8006385243856365e+26
138,0.4779999852180481,0.0,0.4149150252342224,-0.009749284014105797,-0.15125851333141327,0.3138919174671173,-0.17187732458114624,-0.2589505612850189,-0.1488618552684784,-0.28565746545791626,0.5868794918060303,0.0,0.0,0.0,0.0,0.0,0.0,0.0,0.0,0.0,0.9479414224624634,-0.11459113657474518,-0.1115172877907753,0.2753748595714569,0.0,-0.4575604498386383,0.0,1014.6749877929688,23.0625,1.80051828481409e-13,-1.6731051206588745,8.572894444531533e+23,0.0,4.850295991571352e-25
138,0.4779999852180481,0.0,-0.43103522062301636,0.7178966999053955,-0.6489315629005432,-0.04986841604113579,1.0146583318710327,-0.30040261149406433,-0.16867005825042725,-0.3733313977718353,0.6123429536819458,0.0,0.0,0.0,0.0,0.0,0.0,0.0,0.0,0.0,0.9383087754249573,-0.15137486159801483,-0.13466057181358337,0.2802148163318634,0.0,-0.41532495617866516,0.0,1014.6699829101562,23.0625,3.271218533603354e-20,6.31432058195428e-35,-2.2905461908057584e+24,0.0,-1.9563277756395197e+37
138,0.4779999852180481,0.0,-0.08134300261735916,0.5970978140830994,-0.10674384981393814,0.26296254992485046,0.5445404052734375,0.09411115199327469,-0.18835537135601044,-0.46258872747421265,0.6337689161300659,0.0,0.0,0.0,0.0,0.0,0.0,0.0,0.0,0.0,0.9275220036506653,-0.18833494186401367,-0.15809263288974762,0.2814803719520569,0.0,-0.41532495617866516,0.0,1014.6699829101562,23.0625,-1.4725310802459717,6.179893262449391e-38,-0.0057942504063248634,0.0,3.106029620300036e-25
138,0.4779999852180481,0.0,-0.038052815943956375,-0.08926524221897125,-0.8449917435646057,-0.26120927929878235,0.4021553695201874,-0.7024642825126648,-0.21231412887573242,-0.5776740312576294,0.6657438278198242,0.0,0.0,0.0,0.0,0.0,0.0,0.0,0.0,0.0,0.9107155203819275,-0.23449711501598358,-0.1885424703359604,0.28293415904045105,0.0,-0.41532495617866516,0.0,1014.6699829101562,23.0625,-1.9275847985348963e+34,-5.068364680690865e+36,-9.091352853646175e-16,0.0,1.8006385243856365e+26
138,0.4779999852180481,0.0,-0.25220179557800293,0.7218925952911377,-0.4804106056690216,0.15223871171474457,0.8891633152961731,0.041558075696229935,-0.2381943315267563,-0.6863478422164917,0.7016076445579529,0.0,0.0,0.0,0.0,0.0,0.0,0.0,0.0,0.0,0.8918101191520691,-0.27529460191726685,-0.21988584101200104,0.2837769389152527,0.0,-0.41532495617866516,0.0,1014.6699829101562,23.0625,1.80051828481409e-13,-1.6731051206588745,8.572894444531533e+23,0.0,4.850295991571352e-25
138,0.4779999852180481,0.0,0.016392596065998077,-0.10210508853197098,-0.5196247696876526,-0.1664023995399475,0.27808448672294617,-0.4191405177116394,-0.21365909278392792,-0.7574613690376282,0.749147355556488,0.0,0.0,0.0,0.0,0.0,0.0,0.0,0.0,0.0,0.8742032051086426,-0.3058941960334778,-0.22670923173427582,0.3013176918029785,0.0,-0.3740948736667633,0.0,1014.6425170898438,23.0625,3.271218533603354e-20,6.31432058195428e-35,-2.2905461908057584e+24,0.0,-1.9563277756395197e+37
138,0.4779999852180481,0.0,0.6201376914978027,-0.9877025485038757,-0.03761390596628189,-0.2286476492881775,-0.8172297477722168,-0.8008591532707214,-0.20142361521720886,-0.782534122467041,0.7553970813751221,0.0,0.0,0.0,0.0,0.0,0.0,0.0,0.0,0.0,0.8690516352653503,-0.31840649247169495,-0.22631825506687164,0.3035430312156677,0.0,-0.3740948736667633,0.0,1014.6425170898438,23.0625,-1.4725310802459717,6.179893262449391e-38,-0.0057942504063248634,0.0,3.106029620300036e-25
138,0.4779999852180481,0.0,-0.1723080277442932,0.535366415977478,-0.262480765581131,0.1615346372127533,0.5808451175689697,0.14738592505455017,-0.22666971385478973,-0.7856365442276001,0.7255163788795471,0.0,0.0,0.0,0.0,0.0,0.0,0.0,0.0,0.0,0.8735296130180359,-0.31850966811180115,-0.23264358937740326,0.28524795174598694,0.0,-0.3740948736667633,0.0,1014.6425170898438,23.0625,-1.9275847985348963e+34,-5.068364680690865e+36,-9.091352853646175e-16,0.0,1.8006385243856365e+26
138,0.4779999852180481,0.0,-0.2100706845521927,0.6271418929100037,-0.5017881989479065,0.10607023537158966,0.8229429125785828,0.027030732482671738,-0.2566714882850647,-0.7588117718696594,0.6967817544937134,0.0,0.0,0.0,0.0,0.0,0.0,0.0,0.0,0.0,0.8820789456367493,-0.30466896295547485,-0.23713886737823486,0.26994529366493225,0.0,-0.3740948736667633,0.0,1014.6425170898438,23.0625,1.80051828481409e-13,-1.6731051206588745,8.572894444531533e+23,0.0,4.850295991571352e-25
138,0.4779999852180481,0.0,0.002902011387050152,0.3035377860069275,-0.14194397628307343,0.14955046772956848,0.29821425676345825,0.03150911629199982,-0.25511255860328674,-0.7730380296707153,0.6734145879745483,0.0,0.0,0.0,0.0,0.0,0.0,0.0,0.0,0.0,0.8829542994499207,-0.31397929787635803,-0.2347404658794403,0.2582588791847229,0.0,-0.14581814408302307,0.0,1014.6174926757812,23.0625,3.271218533603354e-20,6.31432058195428e-35,-2.2905461908057584e+24,0.0,-1.9563277756395197e+37
138,0.4779999852180481,0.0,-0.05096355080604553,0.38700926303863525,-1.560873031616211,-0.20030635595321655,1.3397690057754517,-0.868074357509613,-0.25037017464637756,-0.7814972400665283,0.6464020609855652,0.0,0.0,0.0,0.0,0.0,0.0,0.0,0.0,0.0,0.8849900364875793,-0.32166582345962524,-0.22949199378490448,0.246270552277565,0.0,-0.14581814408302307,0.0,1014.6174926757812,23.0625,-1.4725310802459717,6.179893262449391e-38,-0.0057942504063248634,0.0,3.106029620300036e-25
138,0.4779999852180481,0.0,0.22112146019935608,0.3587210476398468,-1.1340866088867188,0.13986286520957947,0.9349755644798279,-0.7549595236778259,-0.21241000294685364,-0.7536100745201111,0.6155393719673157,0.0,0.0,0.0,0.0,0.0,0.0,0.0,0.0,0.0,0.8929724097251892,-0.3188249468803406,-0.2047739177942276,0.24292103946208954,0.0,-0.14581814408302307,0.0,1014.6174926757812,23.0625,-1.9275847985348963e+34,-5.068364680690865e+36,-9.091352853646175e-16,0.0,1.8006385243856365e+26
138,0.4779999852180481,0.0,-0.29696470499038696,0.49122264981269836,-0.6227160096168518,-0.06296291202306747,0.8381525874137878,-0.10385967046022415,-0.13145919144153595,-0.7007256150245667,0.5765553712844849,0.0,0.0,0.0,0.0,0.0,0.0,0.0,0.0,0.0,0.904951274394989,-0.3108236491680145,-0.1565185785293579,0.24483737349510193,0.0,-0.14581814408302307,0.0,1014.6174926757812,23.0625,1.80051828481409e-13,-1.6731051206588745,8.572894444531533e+23,0.0,4.850295991571352e-25
138,0.4779999852180481,0.0,-0.43070799112319946,0.8343179225921631,0.11607547849416733,0.05407457798719406,0.6612951755523682,0.6744025349617004,-0.020874427631497383,-0.6731851100921631,0.5316060781478882,0.0,0.0,0.0,0.0,0.0,0.0,0.0,0.0,0.0,0.911590039730072,-0.3160676956176758,-0.09625779092311859,0.2446032464504242,0.0,0.062350451946258545,0.0,1014.6849975585938,23.125,3.271218533603354e-20,6.31432058195428e-35,-2.2905461908057584e+24,0.0,-1.9563277756395197e+37
138,0.4779999852180481,0.0,0.08070442825555801,0.6439829468727112,-1.0280942916870117,0.5067684054374695,1.017093539237976,-0.43230366706848145,0.12467663735151291,-0.6741122007369995,0.5044171810150146,0.0,0.0,0.0,0.0,0.0,0.0,0.0,0.0,0.0,0.9069557785987854,-0.33429574966430664,-0.025433020666241646,0.2549944818019867,0.0,0.062350451946258545,0.0,1014.6849975585938,23.125,-1.4725310802459717,6.179893262449391e-38,-0.0057942504063248634,0.0,3.106029620300036e-25
138,0.4779999852180481,0.0,-0.17426441609859467,0.7231041193008423,0.6832732558250427,-0.03637661412358284,0.10470883548259735,1.0038951635360718,0.3432021737098694,-0.6830509305000305,0.5164588689804077,0.0,0.0,0.0,0.0,0.0,0.0,0.0,0.0,0.0,0.8830140829086304,-0.3601509928703308,0.07129088789224625,0.2923808693885803,0.0,0.062350451946258545,0.0,1014.6849975585938,23.125,-1.9275847985348963e+34,-5.068364680690865e+36,-9.091352853646175e-16,0.0,1.8006385243856365e+26
138,0.4779999852180481,0.0,-0.4077824652194977,0.8537918329238892,0.8218430876731873,-0.3514338731765747,0.2670303285121918,1.1729602813720703,0.5475842952728271,-0.6756272315979004,0.5403442978858948,0.0,0.0,0.0,0.0,0.0,0.0,0.0,0.0,0.0,0.851467490196228,-0.37559065222740173,0.16068866848945618,0.328794002532959,0.0,-0.4987901747226715,0.0,1014.6400146484375,23.0625,1.80051828481409e-13,-1.6731051206588745,8.572894444531533e+23,0.0,4.850295991571352e-25
138,0.4779999852180481,0.0,-0.003309230087324977,1.5953096151351929,1.9200630187988281,-0.688620924949646,-0.1156323179602623,2.396662473678589,0.7605082392692566,-0.6372640132904053,0.5835986733436584,0.0,0.0,0.0,0.0,0.0,0.0,0.0,0.0,0.0,0.8111001253128052,-0.3799918591976166,0.2538944184780121,0.3650369346141815,0.0,-0.4987901747226715,0.0,1014.6400146484375,23.0625,3.271218533603354e-20,6.31432058195428e-35,-2.2905461908057584e+24,0.0,-1.9563277756395197e+37
138,0.4779999852180481,0.0,0.48699918389320374,-0.4018745422363281,0.0564403161406517,0.043484076857566833,-0.601326048374176,-0.19587361812591553,0.9199976921081543,-0.5548032522201538,0.647692859172821,0.0,0.0,0.0,0.0,0.0,0.0,0.0,0.0,0.0,0.7783058285713196,-0.36850446462631226,0.32669633626937866,0.38949447870254517,0.0,-0.4987901747226715,0.0,1014.6400146484375,23.0625,-1.4725310802459717,6.179893262449391e-38,-0.0057942504063248634,0.0,3.106029620300036e-25
138,0.4779999852180481,0.0,0.9304468035697937,0.27139249444007874,0.8124436736106873,-0.27720391750335693,-0.8854047060012817,0.8594421148300171,1.057971477508545,-0.46100053191185,0.7213354110717773,0.0,0.0,0.0,0.0,0.0,0.0,0.0,0.0,0.0,0.7457159757614136,-0.3579309582710266,0.3900999426841736,0.4044837951660156,0.0,-0.4987901747226715,0.0,1014.6400146484375,23.0625,-1.9275847985348963e+34,-5.068364680690865e+36,-9.091352853646175e-16,0.0,1.8006385243856365e+26
138,0.4779999852180481,0.0,0.35110753774642944,-0.8029406666755676,0.6440152525901794,-0.6948533654212952,-0.7619924545288086,-0.3453591763973236,1.1028409004211426,-0.48879432678222656,0.7208774089813232,0.0,0.0,0.0,0.0,0.0,0.0,0.0,0.0,0.0,0.7286455035209656,-0.37214258313179016,0.4029792845249176,0.4101039171218872,0.0,-0.12469978630542755,0.0,1014.6849975585938,23.125,1.80051828481409e-13,-1.6731051206588745,8.572894444531533e+23,0.0,4.850295991571352e-25
138,0.4779999852180481,0.0,1.2737627029418945,-0.47524693608283997,0.8099231123924255,-0.4300729036331177,-1.5114097595214844,0.18693305552005768,1.1026560068130493,-0.5458173155784607,0.7162621021270752,0.0,0.0,0.0,0.0,0.0,0.0,0.0,0.0,0.0,0.718762218952179,-0.39184534549713135,0.39195406436920166,0.41976433992385864,0.0,-0.12469978630542755,0.0,1014.6849975585938,23.125,3.271218533603354e-20,6.31432058195428e-35,-2.2905461908057584e+24,0.0,-1.9563277756395197e+37
138,0.4779999852180481,0.0,0.20170500874519348,0.07104187458753586,1.3980121612548828,-1.1677088737487793,-0.5021530985832214,0.6200292706489563,1.1162314414978027,-0.5898036360740662,0.6842979192733765,0.0,0.0,0.0,0.0,0.0,0.0,0.0,0.0,0.0,0.7129397988319397,-0.4022635817527771,0.3946421146392822,0.41731342673301697,0.0,-0.12469978630542755,0.0,1014.6849975585938,23.125,-1.4725310802459717,6.179893262449391e-38,-0.0057942504063248634,0.0,3.106029620300036e-25
138,0.4779999852180481,0.0,0.45777732133865356,0.19819365441799164,0.036575280129909515,0.17450591921806335,-0.36732974648475647,0.2911888659000397,1.11453115940094,-0.5398016571998596,0.7466340661048889,0.0,0.0,0.0,0.0,0.0,0.0,0.0,0.0,0.0,0.7102022767066956,-0.39660653471946716,0.3920868933200836,0.429622620344162,0.0,-0.12469978630542755,0.0,1014.6849975585938,23.125,-1.9275847985348963e+34,-5.068364680690865e+36,-9.091352853646175e-16,0.0,1.8006385243856365e+26
138,0.4779999852180481,0.0,0.538811445236206,-0.887164294719696,-0.13472561538219452,0.018437078222632408,-0.7507416009902954,-0.7290809750556946,1.130190372467041,-0.5030754804611206,0.7816148400306702,0.0,0.0,0.0,0.0,0.0,0.0,0.0,0.0,0.0,0.705508828163147,-0.3919212520122528,0.39947235584259033,0.4348205626010895,0.0,-0.4987901747226715,0.0,1014.6950073242188,23.125,1.80051828481409e-13,-1.6731051206588745,8.572894444531533e+23,0.0,4.850295991571352e-25
138,0.4779999852180481,0.0,0.0009796248050406575,-0.7452458739280701,0.16398902237415314,-0.1819201558828354,-0.2521396577358246,-0.6968546509742737,1.3566066026687622,-1.1360383033752441,0.13862235844135284,0.0,0.0,0.0,0.0,0.0,0.0,0.0,0.0,0.0,0.6314013004302979,-0.454498291015625,0.4986701011657715,0.3822094202041626,0.0,-0.4987901747226715,0.0,1014.6950073242188,23.125,3.271218533603354e-20,6.31432058195428e-35,-2.2905461908057584e+24,0.0,-1.9563277756395197e+37
138,0.4779999852180481,0.0,-0.6311315298080444,-0.7152621150016785,-0.11956504732370377,0.1527547389268875,0.4186933636665344,-0.8518038392066956,1.3356165885925293,-2.1591107845306396,-0.88788902759552,0.0,0.0,0.0,0.0,0.0,0.0,0.0,0.0,0.0,0.5690062642097473,-0.49973994493484497,0.5611631870269775,0.3340355157852173,0.0,-0.4987901747226715,0.0,1014.6950073242188,23.125,-1.4725310802459717,6.179893262449391e-38,-0.0057942504063248634,0.0,3.106029620300036e-25
138,0.4779999852180481,0.0,-0.6157913208007812,-0.8423863649368286,0.18808265030384064,0.13553486764431,0.3235187530517578,-1.0005682706832886,1.1500598192214966,-2.6959915161132812,-1.4363106489181519,0.0,0.0,0.0,0.0,0.0,0.0,0.0,0.0,0.0,0.48864418268203735,-0.537217915058136,0.6290145516395569,0.27741047739982605,0.0,-0.4987901747226715,0.0,1014.6950073242188,23.125,-1.9275847985348963e+34,-5.068364680690865e+36,-9.091352853646175e-16,0.0,1.8006385243856365e+26
138,0.4779999852180481,0.0,-0.4351246953010559,-0.8481266498565674,0.4632730185985565,0.14917199313640594,0.12662556767463684,-1.041619062423706,0.9281793832778931,-2.877126693725586,-1.618139624595642,0.0,0.0,0.0,0.0,0.0,0.0,0.0,0.0,0.0,0.4024568796157837,-0.5690728425979614,0.6821833252906799,0.22091321647167206,0.0,-0.5822547674179077,0.0,1014.6599731445312,23.125,1.80051828481409e-13,-1.6731051206588745,8.572894444531533e+23,0.0,4.850295991571352e-25
138,0.4779999852180481,0.0,-0.5792985558509827,-0.5296778082847595,-0.3217020332813263,0.6552238464355469,0.48863667249679565,-0.2270285189151764,0.6968204975128174,-2.9481382369995117,-1.671399474143982,0.0,0.0,0.0,0.0,0.0,0.0,0.0,0.0,0.0,0.31293734908103943,-0.6029561758041382,0.7160483598709106,0.16056399047374725,0.0,-0.5822547674179077,0.0,1014.6599731445312,23.125,3.271218533603354e-20,6.31432058195428e-35,-2.2905461908057584e+24,0.0,-1.9563277756395197e+37
138,0.4779999852180481,0.0,-0.5086193680763245,-0.4588002860546112,0.4081573188304901,0.23870018124580383,0.34404149651527405,-0.6785510182380676,0.5306758880615234,-2.977688789367676,-1.6905711889266968,0.0,0.0,0.0,0.0,0.0,0.0,0.0,0.0,0.0,0.24795123934745789,-0.6220846772193909,0.733795166015625,0.11431363224983215,0.0,-0.5822547674179077,0.0,1014.6599731445312,23.125,-1.4725310802459717,6.179893262449391e-38,-0.0057942504063248634,0.0,3.106029620300036e-25
138,0.4779999852180481,0.0,-0.13509315252304077,-0.4472756087779999,1.5009527206420898,-0.14893250167369843,-0.17256921529769897,-1.5553663969039917,0.3921755850315094,-2.977431058883667,-1.6834901571273804,0.0,0.0,0.0,0.0,0.0,0.0,0.0,0.0,0.0,0.19839046895503998,-0.6392799615859985,0.739689826965332,0.06937876343727112,0.0,-0.5822547674179077,0.0,1014.6599731445312,23.125,-1.9275847985348963e+34,-5.068364680690865e+36,-9.091352853646175e-16,0.0,1.8006385243856365e+26
138,0.4779999852180481,0.0,-0.20404444634914398,-0.14829763770103455,1.3572988510131836,-0.07122637331485748,-0.023449033498764038,-1.3784892559051514,0.17695489525794983,-2.9892489910125732,-1.6838217973709106,0.0,0.0,0.0,0.0,0.0,0.0,0.0,0.0,0.0,0.11620580404996872,-0.656491219997406,0.7453206181526184,0.002141448436304927,0.0,-0.2906286418437958,0.0,1014.6400146484375,23.125,1.80051828481409e-13,-1.6731051206588745,8.572894444531533e+23,0.0,4.850295991571352e-25
138,0.4779999852180481,0.0,-0.2232004553079605,-0.23739901185035706,0.08778759092092514,0.2555096745491028,0.18374116718769073,-0.12180142104625702,0.03343760967254639,-3.008707284927368,-1.6712766885757446,0.0,0.0,0.0,0.0,0.0,0.0,0.0,0.0,0.0,0.05689704790711403,-0.668304979801178,0.7407262921333313,-0.03805066645145416,0.0,-0.2906286418437958,0.0,1014.6400146484375,23.125,3.271218533603354e-20,6.31432058195428e-35,-2.2905461908057584e+24,0.0,-1.9563277756395197e+37
138,0.4779999852180481,0.0,-0.13511088490486145,-0.4596729576587677,0.47177502512931824,0.46171897649765015,0.03468989208340645,-0.4875763952732086,0.017833925783634186,-3.0233700275421143,-1.6635456085205078,0.0,0.0,0.0,0.0,0.0,0.0,0.0,0.0,0.0,0.046369682997465134,-0.6719712615013123,0.7381582260131836,-0.03766779229044914,0.0,-0.2906286418437958,0.0,1014.6400146484375,23.125,-1.4725310802459717,6.179893262449391e-38,-0.0057942504063248634,0.0,3.106029620300036e-25
138,0.4779999852180481,0.0,-0.3574058711528778,-0.6320517063140869,0.3470916450023651,0.6609542965888977,0.25311988592147827,-0.3830931484699249,0.0007889756234362721,-3.0134668350219727,-1.6595174074172974,0.0,0.0,0.0,0.0,0.0,0.0,0.0,0.0,0.0,0.04350656643509865,-0.6736477017402649,0.7362691760063171,-0.046965282410383224,0.0,-0.2906286418437958,0.0,1014.6400146484375,23.125,-1.9275847985348963e+34,-5.068364680690865e+36,-9.091352853646175e-16,0.0,1.8006385243856365e+26
138,0.4779999852180481,0.0,-0.5199225544929504,-0.6619943976402283,0.13460440933704376,0.705670177936554,0.43966054916381836,-0.18812523782253265,-0.012241438031196594,-3.003849506378174,-1.656524658203125,0.0,0.0,0.0,0.0,0.0,0.0,0.0,0.0,0.0,0.042031336575746536,-0.6748490929603577,0.7347094416618347,-0.054829128086566925,0.0,-0.12469978630542755,0.0,1014.6425170898438,23.125,1.80051828481409e-13,-1.6731051206588745,8.572894444531533e+23,0.0,4.850295991571352e-25
138,0.4779999852180481,0.0,-0.3299492597579956,-0.5305184125900269,-0.04154781252145767,0.5557628870010376,0.2881912887096405,0.010473898611962795,-0.015822337940335274,-3.002436399459839,-1.655371069908142,0.0,0.0,0.0,0.0,0.0,0.0,0.0,0.0,0.0,0.04122425988316536,-0.6753259897232056,0.7341877222061157,-0.05653148889541626,0.0,-0.12469978630542755,0.0,1014.6425170898438,23.125,3.271218533603354e-20,6.31432058195428e-35,-2.2905461908057584e+24,0.0,-1.9563277756395197e+37
138,0.4779999852180481,0.0,-0.12940019369125366,-0.19772744178771973,0.4382419288158417,0.21443597972393036,0.04974308982491493,-0.44658198952674866,-0.015491949394345284,-2.9988949298858643,-1.6528992652893066,0.0,0.0,0.0,0.0,0.0,0.0,0.0,0.0,0.0,0.04261269420385361,-0.676150918006897,0.7332602739334106,-0.05766739323735237,0.0,-0.12469978630542755,0.0,1014.6425170898438,23.125,-1.4725310802459717,6.179893262449391e-38,-0.0057942504063248634,0.0,3.106029620300036e-25
138,0.4779999852180481,0.0,-0.3367358446121216,-0.40543729066848755,1.023991584777832,0.44537273049354553,0.13714556396007538,-1.053158164024353,-0.013899719342589378,-2.9817068576812744,-1.6512395143508911,0.0,0.0,0.0,0.0,0.0,0.0,0.0,0.0,0.0,0.04905860498547554,-0.6763247847557068,0.7322239279747009,-0.06338895112276077,0.0,-0.12469978630542755,0.0,1014.6425170898438,23.125,-1.9275847985348963e+34,-5.068364680690865e+36,-9.091352853646175e-16,0.0,1.8006385243856365e+26
138,0.4779999852180481,0.0,-0.31111788749694824,-0.6201390624046326,0.40895363688468933,0.648378312587738,0.19185665249824524,-0.4374884366989136,-0.012227622792124748,-2.9805054664611816,-1.652382731437683,0.0,0.0,0.0,0.0,0.0,0.0,0.0,0.0,0.0,0.05004137009382248,-0.6758307814598083,0.7326217889785767,-0.06329255551099777,0.0,-0.14581814408302307,0.0,1014.6475219726562,23.125,1.80051828481409e-13,-1.6731051206588745,8.572894444531533e+23,0.0,4.850295991571352e-25
138,0.4779999852180481,0.0,-0.42738595604896545,-0.798933744430542,-0.07223132997751236,0.8296722769737244,0.370281845331192,0.02633092738687992,-0.016440020874142647,-2.979116678237915,-1.6520286798477173,0.0,0.0,0.0,0.0,0.0,0.0,0.0,0.0,0.0,0.04897773638367653,-0.6760410070419312,0.7323310971260071,-0.06521432846784592,0.0,-0.14581814408302307,0.0,1014.6475219726562,23.125,3.271218533603354e-20,6.31432058195428e-35,-2.2905461908057584e+24,0.0,-1.9563277756395197e+37
138,0.4779999852180481,0.0,-0.4287256598472595,-0.9226002097129822,-0.0059252167120575905,0.9546428918838501,0.34982937574386597,-0.03594435378909111,-0.015406492166221142,-2.9804935455322266,-1.6534756422042847,0.0,0.0,0.0,0.0,0.0,0.0,0.0,0.0,0.0,0.04884471744298935,-0.6755167245864868,0.7328959703445435,-0.0643966868519783,0.0,-0.14581814408302307,0.0,1014.6475219726562,23.125,-1.4725310802459717,6.179893262449391e-38,-0.0057942504063248634,0.0,3.106029620300036e-25
138,0.4779999852180481,0.0,-0.3017860949039459,-0.7660562992095947,-0.2920055687427521,0.7831181287765503,0.28294870257377625,0.2642694413661957,-0.01826266013085842,-2.979978084564209,-1.6544281244277954,0.0,0.0,0.0,0.0,0.0,0.0,0.0,0.0,0.0,0.047939687967300415,-0.6752318143844604,0.7331141233444214,-0.06557168066501617,0.0,-0.18704912066459656,0.0,1014.6275024414062,23.125,-1.9275847985348963e+34,-5.068364680690865e+36,-9.091352853646175e-16,0.0,1.8006385243856365e+26
138,0.4779999852180481,0.0,-0.2546961307525635,-0.5819443464279175,0.10931392759084702,0.6034238934516907,0.18510456383228302,-0.13072200119495392,-0.016819994896650314,-2.979707717895508,-1.6568191051483154,0.0,0.0,0.0,0.0,0.0,0.0,0.0,0.0,0.0,0.04848255217075348,-0.6743096709251404,0.7339560389518738,-0.06524252146482468,0.0,-0.18704912066459656,0.0,1014.6275024414062,23.125,1.80051828481409e-13,-1.6731051206588745,8.572894444531533e+23,0.0,4.850295991571352e-25
138,0.4779999852180481,0.0,-0.2799408435821533,-0.4153345227241516,0.3710937201976776,0.44769546389579773,0.18554534018039703,-0.39206603169441223,-0.026863472536206245,-2.9885385036468506,-1.656978964805603,0.0,0.0,0.0,0.0,0.0,0.0,0.0,0.0,0.0,0.041807375848293304,-0.6747044324874878,0.7339910268783569,-0.06538619846105576,0.0,-0.18704912066459656,0.0,1014.6275024414062,23.125,3.271218533603354e-20,6.31432058195428e-35,-2.2905461908057584e+24,0.0,-1.9563277756395197e+37
138,0.4779999852180481,0.0,-0.37791797518730164,-0.7578520178794861,-0.15516094863414764,0.769619345664978,0.34271037578582764,0.17737159132957458,-0.08868061006069183,-2.9992284774780273,-1.653424859046936,0.0,0.0,0.0,0.0,0.0,0.0,0.0,0.0,0.0,0.015594813972711563,-0.6772356033325195,0.7309862375259399,-0.08221925050020218,0.0,-0.18704912066459656,0.0,1014.6275024414062,23.125,-1.4725310802459717,6.179893262449391e-38,-0.0057942504063248634,0.0,3.106029620300036e-25
138,0.4779999852180481,0.0,-0.4020504653453827,-0.8205687999725342,0.34485623240470886,0.8862304091453552,0.3068491816520691,-0.27263134717941284,-0.12759219110012054,-3.021735191345215,-1.6483718156814575,0.0,0.0,0.0,-0.0,0.0,0.0,0.0,0.0,0.0,-0.006116790696978569,-0.6793563961982727,0.7285908460617065,-0.08709198981523514,0.0,-0.021118616685271263,0.0,1014.635009765625,23.125,-1.9275847985348963e+34,-5.068364680690865e+36,-9.091352853646175e-16,0.0,1.8006385243856365e+26
138,0.4779999852180481,0.0,-0.4403511583805084,-0.9478695392608643,-0.02284625917673111,0.9615412354469299,0.3892635703086853,0.12954792380332947,-0.1472143828868866,-3.0471439361572266,-1.6384004354476929,0.0,0.0,0.0,-0.0,0.0,0.0,0.0,0.0,0.0,-0.021523553878068924,-0.6827313303947449,0.7254359722137451,-0.08455397933721542,0.0,-0.021118616685271263,0.0,1014.635009765625,23.125,1.80051828481409e-13,-1.6731051206588745,8.572894444531533e+23,0.0,4.850295991571352e-25
138,0.4779999852180481,0.0,-0.26427361369132996,-0.6367654204368591,0.09423824399709702,0.6597129106521606,0.21703489124774933,-0.04311187565326691,-0.1065916195511818,-3.055032968521118,-1.6394773721694946,0.0,0.0,0.0,-0.0,0.0,0.0,0.0,0.0,0.0,-0.009419304318726063,-0.6824871897697449,0.7276703715324402,-0.06789987534284592,0.0,-0.021118616685271263,0.0,1014.635009765625,23.125,3.271218533603354e-20,6.31432058195428e-35,-2.2905461908057584e+24,0.0,-1.9563277756395197e+37
138,0.4779999852180481,0.0,-0.11751672625541687,-0.41643357276916504,-0.49411967396736145,0.4260781407356262,0.13266552984714508,0.4819042980670929,0.006860170979052782,-3.059021234512329,-1.6304800510406494,0.0,0.0,0.0,0.0,0.0,0.0,0.0,0.0,0.0,0.030795641243457794,-0.6849995851516724,0.7273598313331604,-0.027692651376128197,0.0,-0.021118616685271263,0.0,1014.635009765625,23.125,-1.4725310802459717,6.179893262449391e-38,-0.0057942504063248634,0.0,3.106029620300036e-25
138,0.4779999852180481,0.0,-0.3254380524158478,-0.8186265826225281,0.16740603744983673,0.8001182079315186,0.26377519965171814,-0.3070909082889557,0.14233331382274628,-3.0572376251220703,-1.6152788400650024,0.0,0.0,0.0,0.0,0.0,0.0,0.0,0.0,0.0,0.08041103929281235,-0.6866739392280579,0.7222567200660706,0.018712220713496208,0.0,-0.08346857130527496,0.0,1014.6199951171875,23.125,-1.9275847985348963e+34,-5.068364680690865e+36,-9.091352853646175e-16,0.0,1.8006385243856365e+26
138,0.4779999852180481,0.0,-0.4636124074459076,-0.8926181793212891,-0.3270778954029083,0.9567317366600037,0.4398387670516968,0.09935780614614487,0.20099544525146484,-3.0507185459136963,-1.6091872453689575,0.0,0.0,0.0,0.0,0.0,0.0,0.0,0.0,0.0,0.10355371236801147,-0.6859069466590881,0.719330370426178,0.03693370521068573,0.0,-0.08346857130527496,0.0,1014.6199951171875,23.125,1.80051828481409e-13,-1.6731051206588745,8.572894444531533e+23,0.0,4.850295991571352e-25
138,0.4779999852180481,0.0,-0.5236708521842957,-0.6959348320960999,0.34375378489494324,0.6180408000946045,0.4503467082977295,-0.5402986407279968,0.22862735390663147,-3.049816846847534,-1.607231855392456,0.0,0.0,0.0,0.0,0.0,0.0,0.0,0.0,0.0,0.11365789920091629,-0.6850826740264893,0.7180483341217041,0.04628425091505051,0.0,-0.08346857130527496,0.0,1014.6199951171875,23.125,3.271218533603354e-20,6.31432058195428e-35,-2.2905461908057584e+24,0.0,-1.9563277756395197e+37
138,0.4779999852180481,0.0,-0.37029144167900085,-0.6881029009819031,0.19865889847278595,0.6368053555488586,0.3098617494106293,-0.38538411259651184,0.23360946774482727,-3.0508975982666016,-1.6093478202819824,0.0,0.0,0.0,0.0,0.0,0.0,0.0,0.0,0.0,0.11510922014713287,-0.6841041445732117,0.7186186909675598,0.0482756681740284,0.0,-0.08346857130527496,0.0,1014.6199951171875,23.125,-1.4725310802459717,6.179893262449391e-38,-0.0057942504063248634,0.0,3.106029620300036e-25
138,0.4779999852180481,0.0,-0.3069310784339905,-0.5976332426071167,0.14299865067005157,0.5611472725868225,0.2568293809890747,-0.3016049563884735,0.2286832630634308,-3.0520520210266113,-1.6108193397521973,0.0,0.0,0.0,0.0,0.0,0.0,0.0,0.0,0.0,0.11299635469913483,-0.6839171051979065,0.7192226052284241,0.04690348729491234,0.0,0.04173453524708748,0.0,1014.6699829101562,23.125,-1.9275847985348963e+34,-5.068364680690865e+36,-9.091352853646175e-16,0.0,1.8006385243856365e+26
138,0.4779999852180481,0.0,-0.18329735100269318,-0.7077320218086243,0.2274598628282547,0.642623245716095,0.11834508925676346,-0.3990498185157776,0.23045292496681213,-3.036344289779663,-1.6041232347488403,0.0,0.0,0.0,0.0,0.0,0.0,0.0,0.0,0.0,0.11885271966457367,-0.6853102445602417,0.7172374129295349,0.04226353019475937,0.0,0.04173453524708748,0.0,1014.6699829101562,23.125,1.80051828481409e-13,-1.6731051206588745,8.572894444531533e+23,0.0,4.850295991571352e-25
138,0.4779999852180481,0.0,-0.3578525483608246,-0.8666501045227051,0.4730214774608612,0.7405987977981567,0.21670405566692352,-0.7123376727104187,0.23094159364700317,-2.955841302871704,-1.58611261844635,0.0,0.0,0.0,0.0,0.0,0.0,0.0,0.0,0.0,0.1463778167963028,-0.6863781809806824,0.7122006416320801,0.014855855144560337,0.0,0.04173453524708748,0.0,1014.6699829101562,23.125,3.271218533603354e-20,6.31432058195428e-35,-2.2905461908057584e+24,0.0,-1.9563277756395197e+37
138,0.4779999852180481,0.0,-0.4528350532054901,-0.9089263677597046,-0.39856818318367004,0.972314178943634,0.4907217025756836,0.06198221817612648,0.19588781893253326,-2.8211541175842285,-1.578057885169983,0.0,0.0,0.0,0.0,0.0,0.0,0.0,0.0,0.0,0.18036673963069916,-0.6811039447784424,0.7082109451293945,-0.04466128721833229,0.0,0.04173453524708748,0.0,1014.6699829101562,23.125,-1.4725310802459717,6.179893262449391e-38,-0.0057942504063248634,0.0,3.106029620300036e-25
138,0.4779999852180481,0.0,-0.399225652217865,-1.2353384494781494,-0.407382994890213,1.290340542793274,0.43168795108795166,0.00639373017475009,0.19536715745925903,-2.776923179626465,-1.569340467453003,0.0,0.0,0.0,0.0,0.0,0.0,0.0,0.0,0.0,0.19546863436698914,-0.6800751090049744,0.7040771842002869,-0.05964288488030434,0.0,-0.3740948736667633,0.0,1014.6699829101562,23.125,-1.9275847985348963e+34,-5.068364680690865e+36,-9.091352853646175e-16,0.0,1.8006385243856365e+26
138,0.4779999852180481,0.0,-0.34796038269996643,-1.046765923500061,-0.17969898879528046,1.0630130767822266,0.312007337808609,-0.14738315343856812,0.20085012912750244,-2.796194553375244,-1.5750707387924194,0.0,0.0,0.0,0.0,0.0,0.0,0.0,0.0,0.0,0.19062598049640656,-0.6793846487998962,0.7067116498947144,-0.05146772041916847,0.0,-0.3740948736667633,0.0,1014.6699829101562,23.125,1.80051828481409e-13,-1.6731051206588745,8.572894444531533e+23,0.0,4.850295991571352e-25
138,0.4779999852180481,0.0,0.28587183356285095,-0.23482033610343933,-0.9582300782203674,0.4249279797077179,-0.07409580051898956,0.9322000741958618,0.20842091739177704,-2.9073660373687744,-1.5817632675170898,0.0,0.0,0.0,0.0,0.0,0.0,0.0,0.0,0.0,0.15517255663871765,-0.6859684586524963,0.7108172178268433,-0.00997378770262003,0.0,-0.3740948736667633,0.0,1014.6699829101562,23.125,3.271218533603354e-20,6.31432058195428e-35,-2.2905461908057584e+24,0.0,-1.9563277756395197e+37
138,0.4779999852180481,0.0,-0.46733689308166504,-1.1519356966018677,0.3875245749950409,1.0372356176376343,0.3887016475200653,-0.6845153570175171,0.22666826844215393,-3.0298800468444824,-1.5749115943908691,0.0,0.0,0.0,0.0,0.0,0.0,0.0,0.0,0.0,0.11914924532175064,-0.6955533623695374,0.7073689103126526,0.040376000106334686,0.0,-0.3740948736667633,0.0,1014.6699829101562,23.125,-1.4725310802459717,6.179893262449391e-38,-0.0057942504063248634,0.0,3.106029620300036e-25
138,0.4779999852180481,0.0,-0.42790067195892334,-0.9783231616020203,-0.057739295065402985,0.9606438875198364,0.42734023928642273,-0.1951272189617157,0.23746514320373535,-3.0906238555908203,-1.561753511428833,0.0,0.0,0.0,0.0,0.0,0.0,0.0,0.0,0.0,0.10132518410682678,-0.7029393315315247,0.700860857963562,0.06630014628171921,0.0,-0.3740948736667633,0.0,1014.655029296875,23.125,-1.9275847985348963e+34,-5.068364680690865e+36,-9.091352853646175e-16,0.0,1.8006385243856365e+26
138,0.4779999852180481,0.0,-0.2799612283706665,-1.0006333589553833,-0.2826986610889435,1.0335185527801514,0.30023908615112305,0.03524031490087509,0.23908893764019012,-3.1288938522338867,-1.5509439706802368,0.0,0.0,0.0,0.0,0.0,0.0,0.0,0.0,0.0,0.08798857778310776,-0.7084470391273499,0.6955808997154236,0.08074790984392166,0.0,-0.3740948736667633,0.0,1014.655029296875,23.125,1.80051828481409e-13,-1.6731051206588745,8.572894444531533e+23,0.0,4.850295991571352e-25
138,0.4779999852180481,0.0,-0.3769089877605438,-1.177370548248291,-0.061253584921360016,1.1490284204483032,0.4065643846988678,-0.2154722511768341,0.23915791511535645,3.137545585632324,-1.546250343322754,0.0,0.0,0.0,0.0,0.0,0.0,0.0,0.0,0.0,0.0818743109703064,-0.7107847929000854,0.6932112574577332,0.08678591251373291,0.0,-0.3740948736667633,0.0,1014.655029296875,23.125,3.271218533603354e-20,6.31432058195428e-35,-2.2905461908057584e+24,0.0,-1.9563277756395197e+37
138,0.4779999852180481,0.0,-0.3381446897983551,-1.117216944694519,0.1575288325548172,1.0404245853424072,0.37374722957611084,-0.40637215971946716,0.2345346063375473,3.13033390045166,-1.5429216623306274,0.0,0.0,0.0,0.0,0.0,0.0,0.0,0.0,0.0,0.0775606781244278,-0.7124143838882446,0.6919090747833252,0.08777228742837906,0.0,-0.3740948736667633,0.0,1014.655029296875,23.125,-1.4725310802459717,6.179893262449391e-38,-0.0057942504063248634,0.0,3.106029620300036e-25
138,0.4779999852180481,0.0,-0.38137179613113403,-1.0404486656188965,0.03524108976125717,0.9932745695114136,0.4157782793045044,-0.26407337188720703,0.2288329154253006,3.133251667022705,-1.539672613143921,0.0,0.0,0.0,0.0,0.0,0.0,0.0,0.0,0.0,0.07648693770170212,-0.7136521935462952,0.691116213798523,0.08485805988311768,0.0,-0.24939808249473572,0.0,1014.6199951171875,23.125,-1.9275847985348963e+34,-5.068364680690865e+36,-9.091352853646175e-16,0.0,1.8006385243856365e+26
138,0.4779999852180481,0.0,-0.36667734384536743,-0.8896662592887878,-0.10905460268259048,0.8803870677947998,0.39448317885398865,-0.08448662608861923,0.22226832807064056,3.1347928047180176,-1.5399941205978394,0.0,0.0,0.0,0.0,0.0,0.0,0.0,0.0,0.0,0.07477912306785583,-0.7137393355369568,0.6915611624717712,0.08197253197431564,0.0,-0.24939808249473572,0.0,1014.6199951171875,23.125,1.80051828481409e-13,-1.6731051206588745,8.572894444531533e+23,0.0,4.850295991571352e-25
138,0.4779999852180481,0.0,-0.28486743569374084,-0.9654467105865479,0.045985184609889984,0.9226561188697815,0.3161391019821167,-0.2531738877296448,0.22068123519420624,3.1386172771453857,-1.5390303134918213,0.0,0.0,0.0,0.0,0.0,0.0,0.0,0.0,0.0,0.07555609941482544,-0.7139904499053955,0.6914345026016235,0.0801202580332756,0.0,-0.24939808249473572,0.0,1014.6199951171875,23.125,3.271218533603354e-20,6.31432058195428e-35,-2.2905461908057584e+24,0.0,-1.9563277756395197e+37
138,0.4779999852180481,0.0,-0.20366208255290985,-0.8940684795379639,0.08910080045461655,0.8465312719345093,0.23264652490615845,-0.27932554483413696,0.21947549283504486,3.138144016265869,-1.5393368005752563,0.0,0.0,0.0,0.0,0.0,0.0,0.0,0.0,0.0,0.07498232275247574,-0.7139492034912109,0.6915717720985413,0.07984209805727005,0.0,0.04173453524708748,0.0,1014.6475219726562,23.125,-1.4725310802459717,6.179893262449391e-38,-0.0057942504063248634,0.0,3.106029620300036e-25
138,0.4779999852180481,0.0,-0.349619060754776,-1.0766618251800537,0.030543290078639984,1.0323154926300049,0.3833671808242798,-0.2640092968940735,0.22239218652248383,3.1396427154541016,-1.5397658348083496,0.0,0.0,0.0,0.0,0.0,0.0,0.0,0.0,0.0,0.07654332369565964,-0.713629961013794,0.69167160987854,0.08034825325012207,0.0,0.04173453524708748,0.0,1014.6475219726562,23.125,-1.9275847985348963e+34,-5.068364680690865e+36,-9.091352853646175e-16,0.0,1.8006385243856365e+26
138,0.4779999852180481,0.0,-0.27723848819732666,-1.0676562786102295,-0.10957149416208267,1.0567448139190674,0.3098202645778656,-0.12664559483528137,0.22194355726242065,-3.1399688720703125,-1.5399563312530518,0.0,0.0,0.0,0.0,0.0,0.0,0.0,0.0,0.0,0.07767079025506973,-0.7134441137313843,0.6918991804122925,0.07894466072320938,0.0,0.04173453524708748,0.0,1014.6475219726562,23.125,1.80051828481409e-13,-1.6731051206588745,8.572894444531533e+23,0.0,4.850295991571352e-25
138,0.4779999852180481,0.0,-0.3211364150047302,-1.0189396142959595,-0.0385465994477272,0.9927648305892944,0.3503105342388153,-0.18583467602729797,0.22276079654693604,-3.1402387619018555,-1.541778326034546,0.0,0.0,0.0,0.0,0.0,0.0,0.0,0.0,0.0,0.07792942225933075,-0.7127912640571594,0.6925067901611328,0.07925863564014435,0.0,0.04173453524708748,0.0,1014.6475219726562,23.125,3.271218533603354e-20,6.31432058195428e-35,-2.2905461908057584e+24,0.0,-1.9563277756395197e+37
138,0.4779999852180481,0.0,-0.22390195727348328,-0.9897648692131042,0.17655082046985626,0.9187759160995483,0.2524278163909912,-0.39121681451797485,0.22478565573692322,-3.1414685249328613,-1.541825294494629,0.0,0.0,0.0,0.0,0.0,0.0,0.0,0.0,0.0,0.0781940370798111,-0.7127416133880615,0.6923959255218506,0.08040427416563034,0.0,-0.18704912066459656,0.0,1014.6224975585938,23.125,-1.4725310802459717,6.179893262449391e-38,-0.0057942504063248634,0.0,3.106029620300036e-25
138,0.4779999852180481,0.0,-0.042583588510751724,-0.9948349595069885,-0.19109444320201874,1.0081251859664917,0.07345994561910629,-0.07935995608568192,0.26594364643096924,-3.104168653488159,-1.5367947816848755,0.0,0.0,0.0,0.0,0.0,0.0,0.0,0.0,0.0,0.10546023398637772,-0.7108262777328491,0.6905089616775513,0.0824233666062355,0.0,-0.18704912066459656,0.0,1014.6224975585938,23.125,-1.9275847985348963e+34,-5.068364680690865e+36,-9.091352853646175e-16,0.0,1.8006385243856365e+26
138,0.4779999852180481,0.0,-0.24308714270591736,-0.9353376030921936,-0.6608944535255432,1.131551742553711,0.2927275598049164,0.06789211928844452,0.5208264589309692,-2.9847521781921387,-1.5327032804489136,0.0,0.0,0.0,0.0,0.0,0.0,0.0,0.0,0.0,0.23255369067192078,-0.6800234317779541,0.6825984120368958,0.13243336975574493,0.0,-0.18704912066459656,0.0,1014.6224975585938,23.125,1.80051828481409e-13,-1.6731051206588745,8.572894444531533e+23,0.0,4.850295991571352e-25
138,0.4779999852180481,0.0,-0.7059863209724426,-1.1664280891418457,-0.23286156356334686,0.8330701589584351,0.5471429824829102,-0.9590591192245483,0.9212039709091187,-2.7898335456848145,-1.4474893808364868,0.0,0.0,0.0,0.0,0.0,0.0,0.0,0.0,0.0,0.40724751353263855,-0.6093785166740417,0.6423085927963257,0.22414091229438782,0.0,-0.18704912066459656,0.0,1014.6224975585938,23.125,3.271218533603354e-20,6.31432058195428e-35,-2.2905461908057584e+24,0.0,-1.9563277756395197e+37
138,0.4779999852180481,0.0,-0.4048347771167755,-0.3582315742969513,-1.0130195617675781,0.9890975952148438,0.5459485650062561,-0.20502407848834991,1.217923641204834,-2.3477683067321777,-1.053958535194397,0.0,0.0,0.0,0.0,0.0,0.0,0.0,0.0,0.0,0.5393809080123901,-0.5426265597343445,0.5715739130973816,0.29651305079460144,0.0,0.0206158347427845,0.0,1014.6400146484375,23.125,-1.4725310802459717,6.179893262449391e-38,-0.0057942504063248634,0.0,3.106029620300036e-25
138,0.4779999852180481,0.0,-0.9701478481292725,-1.7007911205291748,-0.3971720039844513,-0.1558196246623993,0.4380120635032654,-1.9430456161499023,1.2409307956695557,-0.7875388264656067,0.47560080885887146,0.0,0.0,0.0,0.0,0.0,0.0,0.0,0.0,0.0,0.6776404976844788,-0.4298512041568756,0.4482817053794861,0.39378541707992554,0.0,0.0206158347427845,0.0,1014.6400146484375,23.125,-1.9275847985348963e+34,-5.068364680690865e+36,-9.091352853646175e-16,0.0,1.8006385243856365e+26
138,0.4779999852180481,0.0,-0.4559950530529022,-0.79775470495224,-0.1688271015882492,-0.38463106751441956,0.1554495096206665,-0.8370946645736694,0.9602384567260742,-0.3142085373401642,0.930561900138855,0.0,0.0,0.0,0.0,0.0,0.0,0.0,0.0,0.0,0.7504628896713257,-0.32870176434516907,0.3454417884349823,0.4576273560523987,0.0,0.0206158347427845,0.0,1014.6400146484375,23.125,1.80051828481409e-13,-1.6731051206588745,8.572894444531533e+23,0.0,4.850295991571352e-25
138,0.4779999852180481,0.0,-0.3958391845226288,-0.5339617133140564,-0.4104824364185333,-0.22619999945163727,0.22636845707893372,-0.7126573920249939,0.7153326272964478,-0.16641508042812347,1.091796875,0.0,0.0,0.0,0.0,0.0,0.0,0.0,0.0,0.0,0.7826944589614868,-0.2476702779531479,0.2577545940876007,0.5095127820968628,0.0,0.0206158347427845,0.0,1014.6400146484375,23.125,3.271218533603354e-20,6.31432058195428e-35,-2.2905461908057584e+24,0.0,-1.9563277756395197e+37
138,0.4779999852180481,0.0,-0.19579866528511047,-0.9810978174209595,-0.633674681186676,-0.5471185445785522,-0.10314136743545532,-1.0451955795288086,0.5108358860015869,-0.08299987763166428,1.1833078861236572,0.0,0.0,0.0,0.0,0.0,0.0,0.0,0.0,0.0,0.7965502738952637,-0.17410941421985626,0.18713614344596863,0.5478735566139221,0.0,-0.12469978630542755,0.0,1014.657470703125,23.125,-1.4725310802459717,6.179893262449391e-38,-0.0057942504063248634,0.0,3.106029620300036e-25
138,0.4779999852180481,0.0,-0.06585531681776047,-0.3935265839099884,-0.1100025549530983,-0.3229977488517761,-0.05750245600938797,-0.25231674313545227,0.3793163001537323,-0.07663346827030182,1.2116754055023193,0.0,0.0,0.0,0.0,0.0,0.0,0.0,0.0,0.0,0.8025767803192139,-0.13820120692253113,0.13343487679958344,0.5647634863853455,0.0,-0.12469978630542755,0.0,1014.657470703125,23.125,-1.9275847985348963e+34,-5.068364680690865e+36,-9.091352853646175e-16,0.0,1.8006385243856365e+26
138,0.4779999852180481,0.0,0.5137001872062683,-0.5079483985900879,0.1559714823961258,-0.3410012125968933,-0.655602753162384,0.010986780747771263,0.28274428844451904,-0.08000648021697998,1.2342127561569214,0.0,0.0,0.0,0.0,0.0,0.0,0.0,0.0,0.0,0.8035097122192383,-0.11376245319843292,0.09191001951694489,0.5770394206047058,0.0,-0.12469978630542755,0.0,1014.657470703125,23.125,1.80051828481409e-13,-1.6731051206588745,8.572894444531533e+23,0.0,4.850295991571352e-25
138,0.4779999852180481,0.0,0.0739302933216095,-0.5163201689720154,0.32222363352775574,-0.5277673602104187,-0.25315263867378235,0.182343527674675,0.23569440841674805,-0.09117015451192856,1.2445582151412964,0.0,0.0,0.0,0.0,0.0,0.0,0.0,0.0,0.0,0.802951455116272,-0.10523245483636856,0.06905920803546906,0.5825953483581543,0.0,-0.12469978630542755,0.0,1014.657470703125,23.125,3.271218533603354e-20,6.31432058195428e-35,-2.2905461908057584e+24,0.0,-1.9563277756395197e+37
138,0.4779999852180481,0.0,-0.12211665511131287,-0.14009986817836761,-0.15256790816783905,-0.1382957100868225,0.08960394561290741,-0.17510531842708588,0.1975947916507721,-0.10148657113313675,1.248209834098816,0.0,0.0,0.0,0.0,0.0,0.0,0.0,0.0,0.0,0.8035627603530884,-0.09852545708417892,0.050444185733795166,0.5848303437232971,0.0,-0.26951056718826294,0.0,1014.6875,23.125,-1.4725310802459717,6.179893262449391e-38,-0.0057942504063248634,0.0,3.106029620300036e-25
138,0.4779999852180481,0.0,-0.03738544136285782,0.0465557798743248,-0.012537040747702122,0.034387022256851196,0.050383418798446655,-0.0011265299981459975,0.18643219769001007,-0.10241809487342834,1.2547255754470825,0.0,0.0,0.0,0.0,0.0,0.0,0.0,0.0,0.0,0.8022066354751587,-0.09582787752151489,0.04534143954515457,0.5875518321990967,0.0,-0.26951056718826294,0.0,1014.6875,23.125,-1.9275847985348963e+34,-5.068364680690865e+36,-9.091352853646175e-16,0.0,1.8006385243856365e+26
138,0.4779999852180481,0.0,-0.24903666973114014,0.15063239634037018,0.0854777917265892,0.049215178936719894,0.2721090614795685,0.12469475716352463,0.1976858228445053,-0.09955261647701263,1.260207176208496,0.0,0.0,0.0,0.0,0.0,0.0,0.0,0.0,0.0,0.800130307674408,-0.09807908535003662,0.050459086894989014,0.5895907878875732,0.0,-0.26951056718826294,0.0,1014.6875,23.125,1.80051828481409e-13,-1.6731051206588745,8.572894444531533e+23,0.0,4.850295991571352e-25
138,0.4779999852180481,0.0,-0.013347170315682888,0.09560289978981018,0.10994525998830795,0.06345109641551971,0.02919522300362587,0.12855839729309082,0.20141369104385376,-0.09598860889673233,1.2664579153060913,0.0,0.0,0.0,0.0,0.0,0.0,0.0,0.0,0.0,0.798255443572998,-0.09790267050266266,0.05270596966147423,0.5919603109359741,0.0,-0.26951056718826294,0.0,1014.6875,23.125,3.271218533603354e-20,6.31432058195428e-35,-2.2905461908057584e+24,0.0,-1.9563277756395197e+37
138,0.4779999852180481,0.0,-0.24831311404705048,0.13442935049533844,0.1514243632555008,0.024976227432489395,0.26188135147094727,0.182900533080101,0.2003961056470871,-0.08651303499937057,1.275133728981018,0.0,0.0,0.0,0.0,0.0,0.0,0.0,0.0,0.0,0.7961900234222412,-0.0940602570772171,0.05469343438744545,0.5951758623123169,0.0,-0.5199077725410461,0.0,1014.655029296875,23.125,-1.4725310802459717,6.179893262449391e-38,-0.0057942504063248634,0.0,3.106029620300036e-25
138,0.4779999852180481,0.0,-0.18719471991062164,0.45250484347343445,-0.2950649559497833,0.4349476099014282,0.3214266300201416,-0.18537981808185577,0.20497138798236847,-0.08155543357133865,1.2900073528289795,0.0,0.0,0.0,0.0,0.0,0.0,0.0,0.0,0.0,0.791732907295227,-0.09386114776134491,0.05730506032705307,0.6008798480033875,0.0,-0.5199077725410461,0.0,1014.655029296875,23.125,-1.9275847985348963e+34,-5.068364680690865e+36,-9.091352853646175e-16,0.0,1.8006385243856365e+26
138,0.4779999852180481,0.0,0.28168943524360657,0.006283737253397703,0.5200738310813904,-0.09876057505607605,-0.2985282242298126,0.5009856224060059,0.2886638939380646,-0.04239712655544281,1.4095842838287354,0.0,0.0,0.0,0.0,0.0,0.0,0.0,0.0,0.0,0.7516778707504272,-0.10914304107427597,0.0959487110376358,0.6433145999908447,0.0,-0.5199077725410461,0.0,1014.655029296875,23.125,1.80051828481409e-13,-1.6731051206588745,8.572894444531533e+23,0.0,4.850295991571352e-25
138,0.4779999852180481,0.0,-0.2865407168865204,0.09828449040651321,0.3077058494091034,0.03150976821780205,0.28887537121772766,0.31937989592552185,0.30027055740356445,0.04434822127223015,1.6775732040405273,0.0,0.0,0.0,0.0,0.0,0.0,0.0,0.0,0.0,0.6631489396095276,-0.09657713025808334,0.11625146865844727,0.7330648303031921,0.0,-0.5199077725410461,0.0,1014.655029296875,23.125,3.271218533603354e-20,6.31432058195428e-35,-2.2905461908057584e+24,0.0,-1.9563277756395197e+37
138,0.4779999852180481,0.0,-0.34707313776016235,0.11535734683275223,-0.45767977833747864,0.3562994599342346,0.22615164518356323,-0.40637171268463135,0.26457229256629944,0.11534234136343002,1.9845001697540283,0.0,0.0,0.0,0.0,0.0,0.0,0.0,0.0,0.0,0.5474916696548462,-0.07900980859994888,0.11984171718358994,0.8244025111198425,0.0,-0.24939808249473572,0.0,1014.6649780273438,23.125,-1.4725310802459717,6.179893262449391e-38,-0.0057942504063248634,0.0,3.106029620300036e-25
138,0.4779999852180481,0.0,0.7162241339683533,-0.07425249367952347,-0.2499103993177414,-0.47083014249801636,-0.5255555510520935,-0.2881772518157959,0.22886189818382263,0.15588289499282837,2.318938732147217,0.0,0.0,0.0,0.0,0.0,0.0,0.0,0.0,0.0,0.4041524827480316,-0.07341260462999344,0.1164153516292572,0.9042733907699585,0.0,-0.24939808249473572,0.0,1014.6649780273438,23.125,-1.9275847985348963e+34,-5.068364680690865e+36,-9.091352853646175e-16,0.0,1.8006385243856365e+26
138,0.4779999852180481,0.0,-0.7791330814361572,0.3593021035194397,-1.2183303833007812,1.123504400253296,0.031913481652736664,-0.9783439636230469,0.2546170949935913,0.12652988731861115,2.5277063846588135,0.0,0.0,0.0,0.0,0.0,0.0,0.0,0.0,0.0,0.30675193667411804,-0.10184137523174286,0.09806520491838455,0.9412259459495544,0.0,-0.24939808249473572,0.0,1014.6649780273438,23.125,1.80051828481409e-13,-1.6731051206588745,8.572894444531533e+23,0.0,4.850295991571352e-25
138,0.4779999852180481,0.0,-0.4630916118621826,0.15236718952655792,-0.485477477312088,0.5694577097892761,0.05422819405794144,-0.38226550817489624,0.21002039313316345,0.09946000576019287,2.634046792984009,0.0,0.0,0.0,0.0,0.0,0.0,0.0,0.0,0.0,0.25440865755081177,-0.0889240950345993,0.0741349384188652,0.9601374864578247,0.0,-0.3328646421432495,0.0,1014.6599731445312,23.125,3.271218533603354e-20,6.31432058195428e-35,-2.2905461908057584e+24,0.0,-1.9563277756395197e+37
138,0.4779999852180481,0.0,-0.7164109945297241,0.21920907497406006,-0.2890987694263458,0.7812245488166809,0.11817403882741928,-0.1434830278158188,0.20739777386188507,0.09947375953197479,2.667760133743286,0.0,0.0,0.0,0.0,0.0,0.0,0.0,0.0,0.0,0.23815813660621643,-0.0888916477560997,0.07233302295207977,0.9644367694854736,0.0,-0.3328646421432495,0.0,1014.6599731445312,23.125,-1.4725310802459717,6.179893262449391e-38,-0.0057942504063248634,0.0,3.106029620300036e-25
138,0.4779999852180481,0.0,-0.9051330089569092,-0.21600404381752014,0.03534122556447983,0.6830268502235413,0.6177623867988586,0.13784614205360413,0.22114533185958862,0.08498194068670273,2.669711112976074,0.0,0.0,0.0,0.0,0.0,0.0,0.0,0.0,0.0,0.23667699098587036,-0.09732501208782196,0.06682033091783524,0.964384913444519,0.0,-0.3328646421432495,0.0,1014.6599731445312,23.125,-1.9275847985348963e+34,-5.068364680690865e+36,-9.091352853646175e-16,0.0,1.8006385243856365e+26
138,0.4779999852180481,0.0,-1.2277684211730957,-0.4896358549594879,-0.23435024917125702,0.9069895148277283,0.9838861227035522,-0.1067049577832222,0.2220470905303955,0.07217784970998764,2.675656318664551,0.0,0.0,0.0,0.0,0.0,0.0,0.0,0.0,0.0,0.2331843376159668,-0.09945419430732727,0.06045253202319145,0.965438187122345,0.0,-0.3328646421432495,0.0,1014.6599731445312,23.125,1.80051828481409e-13,-1.6731051206588745,8.572894444531533e+23,0.0,4.850295991571352e-25
138,0.4779999852180481,0.0,-0.990123450756073,-0.5532603859901428,-0.2182493656873703,0.6760573387145996,0.9269373416900635,-0.1333601027727127,0.22417430579662323,0.06839293241500854,2.683804988861084,0.0,0.0,0.0,0.0,0.0,0.0,0.0,0.0,0.0,0.22906816005706787,-0.1011630967259407,0.05845363438129425,0.9663686156272888,0.0,-0.2906286418437958,0.0,1014.6599731445312,23.125,3.271218533603354e-20,6.31432058195428e-35,-2.2905461908057584e+24,0.0,-1.9563277756395197e+37
138,0.4779999852180481,0.0,-0.18778987228870392,0.7914415597915649,0.0032109832391142845,0.5020017027854919,-0.6202799081802368,0.15776802599430084,0.219478577375412,0.06797374039888382,2.6888692378997803,0.0,0.0,0.0,0.0,0.0,0.0,0.0,0.0,0.0,0.22658024728298187,-0.09908367693424225,0.057479821145534515,0.9672286510467529,0.0,-0.2906286418437958,0.0,1014.6599731445312,23.125,-1.4725310802459717,6.179893262449391e-38,-0.0057942504063248634,0.0,3.106029620300036e-25
138,0.4779999852180481,0.0,-1.0616357326507568,-0.24092422425746918,-0.21889309585094452,0.8794916272163391,0.6743369698524475,-0.06907705217599869,0.22443005442619324,0.06703191250562668,2.693071126937866,0.0,0.0,0.0,0.0,0.0,0.0,0.0,0.0,0.0,0.22452038526535034,-0.10170956701040268,0.05735373497009277,0.9674438238143921,0.0,-0.2906286418437958,0.0,1014.6599731445312,23.125,-1.9275847985348963e+34,-5.068364680690865e+36,-9.091352853646175e-16,0.0,1.8006385243856365e+26
138,0.4779999852180481,0.0,-0.6609415411949158,-0.29070499539375305,-0.27974703907966614,0.5254992246627808,0.5312855243682861,-0.20294710993766785,0.22795593738555908,0.0700502097606659,2.702319622039795,0.0,0.0,0.0,0.0,0.0,0.0,0.0,0.0,0.0,0.22021450102329254,-0.10335154831409454,0.058718908578157425,0.9681774973869324,0.0,-0.2906286418437958,0.0,1014.6599731445312,23.125,1.80051828481409e-13,-1.6731051206588745,8.572894444531533e+23,0.0,4.850295991571352e-25
138,0.4779999852180481,0.0,-0.715697169303894,-0.3306885361671448,-0.14731697738170624,0.5306444764137268,0.5971851944923401,-0.07109755277633667,0.22849540412425995,0.07218702137470245,2.7080254554748535,0.0,0.0,0.0,0.0,0.0,0.0,0.0,0.0,0.0,0.21756482124328613,-0.10354805737733841,0.05951537936925888,0.9687066674232483,0.0,-0.2906286418437958,0.0,1014.66748046875,23.125,3.271218533603354e-20,6.31432058195428e-35,-2.2905461908057584e+24,0.0,-1.9563277756395197e+37
138,0.4779999852180481,0.0,-0.9984329342842102,-0.4415118098258972,-0.25336745381355286,0.7595663666725159,0.8122064471244812,-0.13911953568458557,0.23821061849594116,0.07692883163690567,2.7074830532073975,0.0,0.0,0.0,0.0,0.0,0.0,0.0,0.0,0.0,0.2181318700313568,-0.10772775113582611,0.06285686045885086,0.9679120182991028,0.0,-0.2906286418437958,0.0,1014.66748046875,23.125,-1.4725310802459717,6.179893262449391e-38,-0.0057942504063248634,0.0,3.106029620300036e-25
138,0.4779999852180481,0.0,-0.9524441361427307,-0.8159874081611633,0.058207474648952484,0.49815860390663147,1.1490219831466675,0.08906549215316772,0.2394058108329773,0.08079659938812256,2.712838649749756,0.0,0.0,0.0,0.0,0.0,0.0,0.0,0.0,0.0,0.21575570106506348,-0.10805856436491013,0.0645643025636673,0.9682952165603638,0.0,-0.2906286418437958,0.0,1014.66748046875,23.125,-1.9275847985348963e+34,-5.068364680690865e+36,-9.091352853646175e-16,0.0,1.8006385243856365e+26
138,0.4779999852180481,0.0,-0.9113766551017761,-0.6472949981689453,0.1104411706328392,0.520833432674408,0.9815604090690613,0.164455845952034,0.2387710064649582,0.07800482958555222,2.7160987854003906,0.0,0.0,0.0,0.0,0.0,0.0,0.0,0.0,0.0,0.21402186155319214,-0.10815440863370895,0.0629708543419838,0.9687741994857788,0.0,-0.2906286418437958,0.0,1014.66748046875,23.125,1.80051828481409e-13,-1.6731051206588745,8.572894444531533e+23,0.0,4.850295991571352e-25
138,0.4779999852180481,0.0,-0.651674747467041,-0.6188624501228333,-0.06078437715768814,0.3535066246986389,0.8271442651748657,-0.047082554548978806,0.24608998000621796,0.08839675039052963,2.7294697761535645,0.0,0.0,0.0,0.0,0.0,0.0,0.0,0.0,0.0,0.20816828310489655,-0.11104949563741684,0.06800995022058487,0.9693812131881714,0.0,-0.3529769778251648,0.0,1014.6900024414062,23.125,3.271218533603354e-20,6.31432058195428e-35,-2.2905461908057584e+24,0.0,-1.9563277756395197e+37
138,0.4779999852180481,0.0,-0.9030659794807434,-0.666443943977356,0.16640563309192657,0.500179648399353,0.9952319860458374,0.21605150401592255,0.24944263696670532,0.08435862511396408,2.727459669113159,0.0,0.0,0.0,0.0,0.0,0.0,0.0,0.0,0.0,0.20894411206245422,-0.11303142458200455,0.06649772077798843,0.9690901637077332,0.0,-0.3529769778251648,0.0,1014.6900024414062,23.125,-1.4725310802459717,6.179893262449391e-38,-0.0057942504063248634,0.0,3.106029620300036e-25
138,0.4779999852180481,0.0,-0.5551064610481262,-0.7504282593727112,0.5165624022483826,0.09281085431575775,0.9191668629646301,0.5334992408752441,0.2029779553413391,0.01418869849294424,2.7218189239501953,0.0,0.0,0.0,0.0,0.0,0.0,0.0,0.0,0.0,0.20797407627105713,-0.09761890023946762,0.028011305257678032,0.97284334897995,0.0,-0.3529769778251648,0.0,1014.6900024414062,23.125,-1.9275847985348963e+34,-5.068364680690865e+36,-9.091352853646175e-16,0.0,1.8006385243856365e+26
138,0.4779999852180481,0.0,-0.6994192004203796,-0.4031592011451721,-0.3672190010547638,0.5173988342285156,0.6655700206756592,-0.2754558026790619,0.07344625145196915,-0.08370640873908997,2.7487146854400635,0.0,0.0,0.0,0.0,0.0,0.0,0.0,0.0,0.0,0.19336813688278198,-0.044138286262750626,-0.03384875878691673,0.979543924331665,0.0,-0.3529769778251648,0.0,1014.6900024414062,23.125,1.80051828481409e-13,-1.6731051206588745,8.572894444531533e+23,0.0,4.850295991571352e-25
138,0.4779999852180481,0.0,-0.5850746631622314,-0.27646997570991516,-0.230683371424675,0.45785975456237793,0.4870585799217224,-0.15840809047222137,0.005707124713808298,-0.14707055687904358,2.7954065799713135,0.0,0.0,0.0,0.0,0.0,0.0,0.0,0.0,0.0,0.17155660688877106,-0.015456796623766422,-0.07188040763139725,0.9824225306510925,0.0,-0.5400197505950928,0.0,1014.657470703125,23.125,3.271218533603354e-20,6.31432058195428e-35,-2.2905461908057584e+24,0.0,-1.9563277756395197e+37
138,0.4779999852180481,0.0,-0.8239967823028564,-0.6551117897033691,-0.11299041658639908,0.5663095712661743,0.8939889669418335,0.03109188936650753,0.012385638430714607,-0.15352347493171692,2.809008836746216,0.0,0.0,0.0,0.0,0.0,0.0,0.0,0.0,0.0,0.16456682980060577,-0.0187827218323946,-0.07460467517375946,0.9833567142486572,0.0,-0.5400197505950928,0.0,1014.657470703125,23.125,-1.4725310802459717,6.179893262449391e-38,-0.0057942504063248634,0.0,3.106029620300036e-25
138,0.4779999852180481,0.0,-0.6137089133262634,-0.4601328670978546,-0.08525852113962173,0.4409157633781433,0.633133590221405,0.018831638619303703,0.01424209214746952,-0.15475977957248688,2.8246731758117676,0.0,0.0,0.0,0.0,0.0,0.0,0.0,0.0,0.0,0.15677694976329803,-0.01920855976641178,-0.07521162182092667,0.9845742583274841,0.0,-0.5400197505950928,0.0,1014.657470703125,23.125,-1.9275847985348963e+34,-5.068364680690865e+36,-9.091352853646175e-16,0.0,1.8006385243856365e+26
138,0.4779999852180481,0.0,-0.6799163222312927,-0.3076305389404297,0.10431762784719467,0.5499576926231384,0.4787234663963318,0.1901729702949524,0.018781691789627075,-0.1536504030227661,2.828315258026123,0.0,0.0,0.0,0.0,0.0,0.0,0.0,0.0,0.0,0.15481941401958466,-0.021220706403255463,-0.07434573024511337,0.9849085807800293,0.0,-0.5400197505950928,0.0,1014.657470703125,23.125,1.80051828481409e-13,-1.6731051206588745,8.572894444531533e+23,0.0,4.850295991571352e-25
138,0.4779999852180481,0.0,-0.4663485288619995,-0.12135963141918182,-0.20052151381969452,0.4113655686378479,0.28367915749549866,-0.15072450041770935,0.0251572597771883,-0.14538586139678955,2.8290998935699463,0.0,0.0,0.0,0.0,0.0,0.0,0.0,0.0,0.0,0.15428505837917328,-0.023693257942795753,-0.06978604197502136,0.9852696061134338,0.0,-0.26951056718826294,0.0,1014.6624755859375,23.125,3.271218533603354e-20,6.31432058195428e-35,-2.2905461908057584e+24,0.0,-1.9563277756395197e+37
138,0.4779999852180481,0.0,-0.6408097743988037,-0.23745398223400116,-0.07912067323923111,0.5302127003669739,0.4383462965488434,-0.0007838582969270647,0.03436809033155441,-0.13767895102500916,2.8081815242767334,0.0,0.0,0.0,0.0,0.0,0.0,0.0,0.0,0.0,0.16435077786445618,-0.028317013755440712,-0.06497669219970703,0.9838477969169617,0.0,-0.26951056718826294,0.0,1014.6624755859375,23.125,-1.4725310802459717,6.179893262449391e-38,-0.0057942504063248634,0.0,3.106029620300036e-25
138,0.4779999852180481,0.0,-0.6698036193847656,-0.15766771137714386,-0.012186088599264622,0.5820311903953552,0.3627958297729492,0.057054854929447174,0.03599594533443451,-0.1321152150630951,2.809965133666992,0.0,0.0,0.0,0.0,0.0,0.0,0.0,0.0,0.0,0.1634960025548935,-0.02860492467880249,-0.06212936341762543,0.9841657280921936,0.0,-0.26951056718826294,0.0,1014.6624755859375,23.125,-1.9275847985348963e+34,-5.068364680690865e+36,-9.091352853646175e-16,0.0,1.8006385243856365e+26
138,0.4779999852180481,0.0,-0.7265014052391052,-0.3655475080013275,-0.152436301112175,0.5774921774864197,0.5893438458442688,-0.06189493462443352,0.031130164861679077,-0.12437132745981216,2.8188135623931885,0.0,0.0,0.0,0.0,0.0,0.0,0.0,0.0,0.0,0.15940448641777039,-0.02531748078763485,-0.05883408710360527,0.9851290583610535,0.0,-0.26951056718826294,0.0,1014.6624755859375,23.125,1.80051828481409e-13,-1.6731051206588745,8.572894444531533e+23,0.0,4.850295991571352e-25
138,0.4779999852180481,0.0,-0.6453708410263062,-0.4816022515296936,-0.0033121490851044655,0.4640255570411682,0.651094377040863,0.09591948986053467,0.04374569654464722,-0.12043897062540054,2.826472520828247,0.0,0.0,0.0,0.0,0.0,0.0,0.0,0.0,0.0,0.15528646111488342,-0.031002096831798553,-0.0559975691139698,0.9857893586158752,0.0,-0.31174665689468384,0.0,1014.6749877929688,23.125,3.271218533603354e-20,6.31432058195428e-35,-2.2905461908057584e+24,0.0,-1.9563277756395197e+37
138,0.4779999852180481,0.0,-0.6473144888877869,-0.3230248689651489,-0.12058071047067642,0.5249038934707642,0.5110908150672913,-0.033968161791563034,0.04336465895175934,-0.12598080933094025,2.836061954498291,0.0,0.0,0.0,0.0,0.0,0.0,0.0,0.0,0.0,0.15048490464687347,-0.030962472781538963,-0.058908116072416306,0.986365556716919,0.0,-0.31174665689468384,0.0,1014.6749877929688,23.125,-1.4725310802459717,6.179893262449391e-38,-0.0057942504063248634,0.0,3.106029620300036e-25
138,0.4779999852180481,0.0,-0.6735261082649231,-0.3544481694698334,-0.0372953787446022,0.5422297120094299,0.5327641367912292,0.05292493477463722,0.04073270410299301,-0.12746059894561768,2.846191883087158,0.0,0.0,0.0,0.0,0.0,0.0,0.0,0.0,0.0,0.14555120468139648,-0.029472878202795982,-0.05998949706554413,0.9870859980583191,0.0,-0.31174665689468384,0.0,1014.6749877929688,23.125,-1.9275847985348963e+34,-5.068364680690865e+36,-9.091352853646175e-16,0.0,1.8006385243856365e+26
138,0.4779999852180481,0.0,-0.6096558570861816,-0.4658600389957428,-0.08288291841745377,0.45693308115005493,0.6217467784881592,0.014433943666517735,0.04448842257261276,-0.1240750104188919,2.8559727668762207,0.0,0.0,0.0,0.0,0.0,0.0,0.0,0.0,0.0,0.14065058529376984,-0.030795298516750336,-0.05819156393408775,0.9878634810447693,0.0,-0.41532495617866516,0.0,1014.66748046875,23.125,1.80051828481409e-13,-1.6731051206588745,8.572894444531533e+23,0.0,4.850295991571352e-25
138,0.4779999852180481,0.0,-0.7649434804916382,-0.5579376816749573,0.09917064756155014,0.5826660990715027,0.7223601937294006,0.21201004087924957,0.03826205059885979,-0.1233154684305191,2.8695497512817383,0.0,0.0,0.0,0.0,0.0,0.0,0.0,0.0,0.0,0.13415150344371796,-0.027271302416920662,-0.05844895541667938,0.9888553023338318,0.0,-0.41532495617866516,0.0,1014.66748046875,23.125,3.271218533603354e-20,6.31432058195428e-35,-2.2905461908057584e+24,0.0,-1.9563277756395197e+37
138,0.4779999852180481,0.0,-0.6421423554420471,-0.4698174297809601,-0.14104561507701874,0.5001012682914734,0.6334848999977112,-0.0394136868417263,0.043030597269535065,-0.12749601900577545,2.8730883598327637,0.0,0.0,0.0,0.0,0.0,0.0,0.0,0.0,0.0,0.13218766450881958,-0.02980167232453823,-0.06024297699332237,0.9889390468597412,0.0,-0.41532495617866516,0.0,1014.66748046875,23.125,-1.4725310802459717,6.179893262449391e-38,-0.0057942504063248634,0.0,3.106029620300036e-25
138,0.4779999852180481,0.0,-0.6491694450378418,-0.3689401149749756,-0.266478568315506,0.544927716255188,0.5493484735488892,-0.1726502627134323,0.04541201516985893,-0.12919628620147705,2.8832778930664062,0.0,0.0,0.0,0.0,0.0,0.0,0.0,0.0,0.0,0.12704282999038696,-0.03078026883304119,-0.06108061224222183,0.989531934261322,0.0,-0.41532495617866516,0.0,1014.66748046875,23.125,-1.9275847985348963e+34,-5.068364680690865e+36,-9.091352853646175e-16,0.0,1.8006385243856365e+26
138,0.4779999852180481,0.0,-0.6412246823310852,-0.5221574306488037,0.08914466947317123,0.47968173027038574,0.6509195566177368,0.19483669102191925,0.051953401416540146,-0.12194786220788956,2.8808951377868652,0.0,0.0,0.0,0.0,0.0,0.0,0.0,0.0,0.0,0.12812471389770508,-0.033623456954956055,-0.05702875182032585,0.9895415902137756,0.0,-0.3529769778251648,0.0,1014.7100219726562,23.1875,1.80051828481409e-13,-1.6731051206588745,8.572894444531533e+23,0.0,4.850295991571352e-25
138,0.4779999852180481,0.0,-0.4619101583957672,-0.36886849999427795,-0.02999786287546158,0.35598742961883545,0.47062480449676514,0.045869287103414536,0.04664451628923416,-0.12552803754806519,2.8888118267059326,0.0,0.0,0.0,0.0,0.0,0.0,0.0,0.0,0.0,0.12432020902633667,-0.030992966145277023,-0.05927148088812828,0.9899808764457703,0.0,-0.3529769778251648,0.0,1014.7100219726562,23.1875,3.271218533603354e-20,6.31432058195428e-35,-2.2905461908057584e+24,0.0,-1.9563277756395197e+37
138,0.4779999852180481,0.0,-0.5813020467758179,-0.2328743189573288,-0.06210998445749283,0.5084753632545471,0.37062349915504456,0.009190483018755913,0.05049322918057442,-0.12338302284479141,2.8926029205322266,0.0,0.0,0.0,0.0,0.0,0.0,0.0,0.0,0.0,0.12235291302204132,-0.032654132694005966,-0.05802679806947708,0.9902463555335999,0.0,-0.3529769778251648,0.0,1014.7100219726562,23.1875,-1.4725310802459717,6.179893262449391e-38,-0.0057942504063248634,0.0,3.106029620300036e-25
138,0.4779999852180481,0.0,-0.5195428133010864,-0.5898075103759766,0.2598428428173065,0.3644944727420807,0.6470867395401001,0.3656866252422333,0.037973660975694656,-0.1370149701833725,2.916267156600952,0.0,0.0,0.0,0.0,0.0,0.0,0.0,0.0,0.0,0.11084874719381332,-0.02651563286781311,-0.06587791442871094,0.9912925958633423,0.0,-0.3529769778251648,0.0,1014.7100219726562,23.1875,-1.9275847985348963e+34,-5.068364680690865e+36,-9.091352853646175e-16,0.0,1.8006385243856365e+26
138,0.4779999852180481,0.0,-0.5246983766555786,-0.834054708480835,0.09407516568899155,0.34982869029045105,0.8793691992759705,0.29003217816352844,0.017403336241841316,-0.21018438041210175,2.9448320865631104,0.0,0.0,0.0,0.0,0.0,0.0,0.0,0.0,0.0,0.09676729887723923,-0.01891465298831463,-0.10353725403547287,0.9897220730781555,0.0,-0.7069475650787354,0.0,1014.6824951171875,23.125,1.80051828481409e-13,-1.6731051206588745,8.572894444531533e+23,0.0,4.850295991571352e-25
138,0.4779999852180481,0.0,-0.6081483364105225,-0.022306963801383972,-0.21704010665416718,0.5969464182853699,0.17977795004844666,-0.16963604092597961,0.004516206681728363,-0.29311078786849976,2.97457218170166,0.0,0.0,0.0,0.0,0.0,0.0,0.0,0.0,0.0,0.08218982070684433,-0.014406971633434296,-0.1453350931406021,0.9858533143997192,0.0,-0.7069475650787354,0.0,1014.6824951171875,23.125,3.271218533603354e-20,6.31432058195428e-35,-2.2905461908057584e+24,0.0,-1.9563277756395197e+37
138,0.4779999852180481,0.0,-0.6053277254104614,-0.2642827332019806,-0.2358885258436203,0.5618118643760681,0.4036450982093811,-0.11550066620111465,0.0038602978456765413,-0.31168773770332336,2.996941089630127,0.0,0.0,0.0,0.0,0.0,0.0,0.0,0.0,0.0,0.0710877850651741,-0.013117891736328602,-0.15466929972171783,0.9853140115737915,0.0,-0.7069475650787354,0.0,1014.6824951171875,23.125,-1.4725310802459717,6.179893262449391e-38,-0.0057942504063248634,0.0,3.106029620300036e-25
138,0.4779999852180481,0.0,-0.5246566534042358,-0.38777244091033936,-0.03727344423532486,0.467176228761673,0.4433749318122864,0.11035986989736557,0.017658120021224022,-0.3075273633003235,3.0041821002960205,0.0,0.0,0.0,0.0,0.0,0.0,0.0,0.0,0.0,0.0664893090724945,-0.01921829953789711,-0.15219159424304962,0.9859204888343811,0.0,-0.7069475650787354,0.0,1014.6824951171875,23.125,-1.9275847985348963e+34,-5.068364680690865e+36,-9.091352853646175e-16,0.0,1.8006385243856365e+26
138,0.4779999852180481,0.0,-0.5480237603187561,-0.4629937410354614,-0.04077056795358658,0.482549786567688,0.5185559391975403,0.12079750746488571,0.012628791853785515,-0.29404667019844055,3.009139060974121,0.0,0.0,0.0,0.0,0.0,0.0,0.0,0.0,0.0,0.0645398199558258,-0.015927080065011978,-0.14575618505477905,0.9870802760124207,0.0,-0.4776725471019745,0.0,1014.70751953125,23.1875,1.80051828481409e-13,-1.6731051206588745,8.572894444531533e+23,0.0,4.850295991571352e-25
138,0.4779999852180481,0.0,-0.5886552929878235,-0.32348281145095825,-0.1460285633802414,0.5449126362800598,0.4185623228549957,-0.01866735704243183,0.015332931652665138,-0.2902829647064209,3.0140857696533203,0.0,0.0,0.0,0.0,0.0,0.0,0.0,0.0,0.0,0.06193166971206665,-0.016784658655524254,-0.14385046064853668,0.9875127673149109,0.0,-0.4776725471019745,0.0,1014.70751953125,23.1875,3.271218533603354e-20,6.31432058195428e-35,-2.2905461908057584e+24,0.0,-1.9563277756395197e+37
138,0.4779999852180481,0.0,-0.516675591468811,-0.22757163643836975,0.016374550759792328,0.48186835646629333,0.27444612979888916,0.10717953741550446,0.023559505119919777,-0.27804675698280334,3.0101497173309326,0.0,0.0,0.0,0.0,0.0,0.0,0.0,0.0,0.0,0.06340685486793518,-0.020740877836942673,-0.13750047981739044,0.9882482290267944,0.0,-0.4776725471019745,0.0,1014.70751953125,23.1875,-1.4725310802459717,6.179893262449391e-38,-0.0057942504063248634,0.0,3.106029620300036e-25
138,0.4779999852180481,0.0,0.08747807145118713,-0.5446957349777222,0.04079815000295639,-0.22492444515228271,0.4837736189365387,0.14620912075042725,0.03495754674077034,-0.2282407432794571,2.8834404945373535,0.0,0.0,0.0,0.0,0.0,0.0,0.0,0.0,0.0,0.12588690221309662,-0.03187499940395355,-0.1106727197766304,0.9853321313858032,0.0,-0.4776725471019745,0.0,1014.70751953125,23.1875,-1.9275847985348963e+34,-5.068364680690865e+36,-9.091352853646175e-16,0.0,1.8006385243856365e+26
138,0.4779999852180481,0.0,-0.009149601683020592,-0.17076295614242554,-0.41928771138191223,-0.08803577721118927,0.20598118007183075,-0.39352747797966003,-0.014858822338283062,-0.1373382955789566,2.5891952514648438,0.0,0.0,0.0,0.0,0.0,0.0,0.0,0.0,0.0,0.27253952622413635,-0.011579849757254124,-0.06803372502326965,0.9596619606018066,0.0,-0.6858303546905518,0.0,1014.6950073242188,23.1875,1.80051828481409e-13,-1.6731051206588745,8.572894444531533e+23,0.0,4.850295991571352e-25
138,0.4779999852180481,0.0,-1.6030664443969727,-0.2170097678899765,-0.18147854506969452,0.8203464150428772,1.394280195236206,-0.18116195499897003,-0.07759470492601395,-0.04652245715260506,2.249121904373169,0.0,0.0,0.0,0.0,0.0,0.0,0.0,0.0,0.0,0.4319431781768799,0.02494974061846733,-0.03770089149475098,0.9007623791694641,0.0,-0.6858303546905518,0.0,1014.6950073242188,23.1875,3.271218533603354e-20,6.31432058195428e-35,-2.2905461908057584e+24,0.0,-1.9563277756395197e+37
