msg_type,mass,time,ax,ay,az,ax_local,ay_local,az_local,pitch,roll,yaw,vx,vy,vz,vx_local,vy_local,vz_local,x,y,z,qw,qx,qy,qz,apogee,baro_altitude,altitude,baro_pressure,baro_temperature,air_pressure,air_density,air_temperature,drag_coefficient
138,0.4779999852180481,57.025665283203125,0.1670185774564743,-0.16272084414958954,0.021082840859889984,0.23227481544017792,-0.015888893976807594,0.024755118414759636,0.01492748036980629,0.012623310089111328,-0.7028341293334961,0.0,0.0,0.0,0.0,0.0,0.0,0.0,0.0,0.0,0.9388209581375122,0.008494863286614418,0.004834855906665325,-0.3442550003528595,0.0,25062.25,0.0,1002.489990234375,11.4375,6.542456454252315e-20,6.319096027754496e-35,-1.9694252699706225e+24,0.0,-1.9563277756395197e+37
138,0.4779999852180481,57.12605667114258,0.10931739211082458,0.02156604267656803,0.10992332547903061,0.06845209747552872,0.08844515681266785,0.10949836671352386,0.0047923605889081955,0.008563632145524025,-0.7084516882896423,0.0,0.0,0.0,0.0,0.0,0.0,0.0,0.0,0.0,0.9378966689109802,0.004847085569053888,0.0007622058037668467,-0.3468684256076813,0.0,25062.25,0.0,1002.489990234375,11.4375,-0.4926444888114929,6.179893262449391e-38,-1.3490651738085058e-12,0.0,3.1221854916389622e-25
138,0.4779999852180481,57.226444244384766,0.18227769434452057,0.02528531663119793,-0.08334258943796158,0.12123177945613861,0.13772642612457275,-0.08452295511960983,-0.001548208063468337,0.007195822428911924,-0.7128133773803711,0.0,0.0,0.0,0.0,0.0,0.0,0.0,0.0,0.0,0.9371474981307983,0.0031016934663057327,-0.00198079040274024,-0.3489026427268982,0.0,25062.25,0.0,1002.489990234375,11.4375,-7.188368735817304e+25,-8.109383489105384e+37,-4.475745386697772e-16,0.0,4.531819456454457e+25
138,0.4779999852180481,57.32683181762695,0.026855897158384323,0.1342398226261139,-0.04869464784860611,-0.06867185235023499,0.118465855717659,-0.04860461875796318,-0.007014548406004906,0.0032973045017570257,-0.7200612425804138,0.0,0.0,0.0,0.0,0.0,0.0,0.0,0.0,0.0,0.93587726354599,0.00030731072183698416,-0.003863229649141431,-0.3522934019565582,0.0,25062.25,0.0,1002.489990234375,11.4375,4.563852074035424e-11,nan,8.572894444531533e+23,0.0,1.1301203836749174e-34
138,0.4779999852180481,57.42764663696289,0.060742300003767014,0.07671133428812027,-0.02658180147409439,-0.005285774823278189,0.09758879244327545,-0.02700316533446312,-0.007139076478779316,0.004696627147495747,-0.7218451499938965,0.0,0.0,0.0,0.0,0.0,0.0,0.0,0.0,0.0,0.9355621337890625,0.0009364534635096788,-0.0041688233613967896,-0.35312506556510925,0.0,25057.375,0.0,1002.2949829101562,11.3125,6.542456454252315e-20,6.319096027754496e-35,-1.9694252699706225e+24,0.0,-1.9563277756395197e+37
138,0.4779999852180481,57.52803421020508,0.07351458072662354,0.09542152285575867,-0.06238464266061783,-0.008602214977145195,0.11989090591669083,-0.06287591904401779,-0.007477841805666685,0.004618281498551369,-0.7240367531776428,0.0,0.0,0.0,0.0,0.0,0.0,0.0,0.0,0.0,0.9351741671562195,0.0008352616569027305,-0.0043143765069544315,-0.35414958000183105,0.0,25057.375,0.0,1002.2949829101562,11.3125,-0.4926444888114929,6.179893262449391e-38,-1.3490651738085058e-12,0.0,3.1221854916389622e-25
138,0.4779999852180481,57.62842559814453,0.07578881084918976,0.14196784794330597,-0.03381256014108658,-0.03837982937693596,0.15623106062412262,-0.03406627103686333,-0.009053066372871399,0.003839263692498207,-0.7292159795761108,0.0,0.0,0.0,0.0,0.0,0.0,0.0,0.0,0.0,0.9342516660690308,0.000179332317202352,-0.004913467913866043,-0.35656923055648804,0.0,25057.375,0.0,1002.2949829101562,11.3125,-7.188368735817304e+25,-8.109383489105384e+37,-4.475745386697772e-16,0.0,4.531819456454457e+25
138,0.4779999852180481,57.72881317138672,0.0983385518193245,0.2656511068344116,0.06652065366506577,-0.10376300662755966,0.26361384987831116,0.06637457013130188,-0.00839927513152361,0.0038691165391355753,-0.731711745262146,0.0,0.0,0.0,0.0,0.0,0.0,0.0,0.0,0.0,0.9338070750236511,0.00030408723978325725,-0.004613770171999931,-0.357735812664032,0.0,25057.375,0.0,1002.2949829101562,11.3125,4.563852074035424e-11,nan,8.572894444531533e+23,0.0,1.1301203836749174e-34
138,0.4779999852180481,57.84261703491211,0.11145617067813873,0.02509252168238163,-0.02579883486032486,0.06561136990785599,0.09323512762784958,-0.026829732581973076,-0.00942939892411232,0.004408173728734255,-0.7349659204483032,0.0,0.0,0.0,0.0,0.0,0.0,0.0,0.0,0.0,0.9332219958305359,0.00036306233960203826,-0.00519175548106432,-0.35925158858299255,0.0,25061.4375,0.0,1002.45751953125,11.375,6.542456454252315e-20,6.319096027754496e-35,-1.9694252699706225e+24,0.0,-1.9563277756395197e+37
138,0.4779999852180481,57.9430046081543,0.05911755561828613,0.07519648224115372,-0.04080871492624283,-0.0067978729493916035,0.09519775211811066,-0.04130071774125099,-0.00729353167116642,0.005674143321812153,-0.7342652678489685,0.0,0.0,0.0,0.0,0.0,0.0,0.0,0.0,0.0,0.9333503842353821,0.0013390087988227606,-0.0044220671989023685,-0.3589257001876831,0.0,25061.4375,0.0,1002.45751953125,11.375,-0.4926444888114929,6.179893262449391e-38,-1.3490651738085058e-12,0.0,3.1221854916389622e-25
138,0.4779999852180481,58.043392181396484,0.09224197268486023,0.12411075830459595,0.12472721189260483,-0.01384760718792677,0.15469014644622803,0.12388503551483154,-0.008013647980988026,0.0061964490450918674,-0.7353155016899109,0.0,0.0,0.0,0.0,0.0,0.0,0.0,0.0,0.0,0.9331604838371277,0.0014509651809930801,-0.004852624144405127,-0.3594130575656891,0.0,25061.4375,0.0,1002.45751953125,11.375,-7.188368735817304e+25,-8.109383489105384e+37,-4.475745386697772e-16,0.0,4.531819456454457e+25
138,0.4779999852180481,58.14378356933594,0.07653705775737762,0.11733922362327576,-0.018841780722141266,-0.022112907841801643,0.1382220834493637,-0.01966683566570282,-0.0073914239183068275,0.00714537501335144,-0.735475480556488,0.0,0.0,0.0,0.0,0.0,0.0,0.0,0.0,0.0,0.9331316947937012,0.002005163347348571,-0.004732995294034481,-0.35948681831359863,0.0,25061.4375,0.0,1002.45751953125,11.375,4.563852074035424e-11,nan,8.572894444531533e+23,0.0,1.1301203836749174e-34
138,0.4779999852180481,58.25758361816406,0.01875685714185238,0.050320111215114594,-0.01921180635690689,-0.019970223307609558,0.04970879852771759,-0.019575485959649086,-0.005706055089831352,0.009587534703314304,-0.7356308102607727,0.0,0.0,0.0,0.0,0.0,0.0,0.0,0.0,0.0,0.9331017136573792,0.0034472059924155474,-0.004385891370475292,-0.35955801606178284,0.0,25062.3125,0.0,1002.4924926757812,11.375,6.542456454252315e-20,6.319096027754496e-35,-1.9694252699706225e+24,0.0,-1.9563277756395197e+37
138,0.4779999852180481,58.35797119140625,-0.0038972506299614906,0.04186925292015076,-0.09116271883249283,-0.03192261978983879,0.027572423219680786,-0.09110110253095627,-0.009859996847808361,0.008915967307984829,-0.7370214462280273,0.0,0.0,0.0,0.0,0.0,0.0,0.0,0.0,0.0,0.9328484535217285,0.0023827170953154564,-0.0062048290856182575,-0.36019665002822876,0.0,25062.3125,0.0,1002.4924926757812,11.375,-0.4926444888114929,6.179893262449391e-38,-1.3490651738085058e-12,0.0,3.1221854916389622e-25
138,0.4779999852180481,58.45835876464844,0.02408832684159279,0.0754542201757431,0.1170940026640892,-0.031926922500133514,0.07285082340240479,0.11686612665653229,-0.009127166122198105,0.00722372904419899,-0.7387205362319946,0.0,0.0,0.0,0.0,0.0,0.0,0.0,0.0,0.0,0.9325448274612427,0.0017206886550411582,-0.005559712648391724,-0.36099591851234436,0.0,25062.3125,0.0,1002.4924926757812,11.375,-7.188368735817304e+25,-8.109383489105384e+37,-4.475745386697772e-16,0.0,4.531819456454457e+25
138,0.4779999852180481,58.55875015258789,0.09831405431032181,0.1340942680835724,-0.09010700136423111,-0.01873028837144375,0.1645631343126297,-0.09128952771425247,-0.00851240660995245,0.008121068589389324,-0.7408938407897949,0.0,0.0,0.0,0.0,0.0,0.0,0.0,0.0,0.0,0.9321520328521729,0.0022441602777689695,-0.005437478423118591,-0.3620082437992096,0.0,25061.1875,0.0,1002.447509765625,11.375,4.563852074035424e-11,nan,8.572894444531533e+23,0.0,1.1301203836749174e-34
138,0.4779999852180481,58.672550201416016,0.14828424155712128,0.15986785292625427,0.06092926114797592,0.0014083818532526493,0.21846875548362732,0.05938795953989029,-0.008655048906803131,0.007014206610620022,-0.7437846064567566,0.0,0.0,0.0,0.0,0.0,0.0,0.0,0.0,0.0,0.9316287636756897,0.0016947892727330327,-0.005306067876517773,-0.3633577823638916,0.0,25061.1875,0.0,1002.447509765625,11.375,6.542456454252315e-20,6.319096027754496e-35,-1.9694252699706225e+24,0.0,-1.9563277756395197e+37
138,0.4779999852180481,58.772945404052734,0.05882553383708,0.055888619273900986,-0.04051021486520767,0.004975090268999338,0.08067474514245987,-0.04113103449344635,-0.008290714584290981,0.007157736457884312,-0.7454922795295715,0.0,0.0,0.0,0.0,0.0,0.0,0.0,0.0,0.0,0.9313185214996338,0.0018234364688396454,-0.00516399135813117,-0.364153653383255,0.0,25061.1875,0.0,1002.447509765625,11.375,-0.4926444888114929,6.179893262449391e-38,-1.3490651738085058e-12,0.0,3.1221854916389622e-25
138,0.4779999852180481,58.87333297729492,0.05434561148285866,0.040449950844049454,-0.01186374668031931,0.012575416825711727,0.06645181030035019,-0.012503291480243206,-0.005314607638865709,0.008610471151769161,-0.7432894110679626,0.0,0.0,0.0,0.0,0.0,0.0,0.0,0.0,0.0,0.9317198395729065,0.0030462907161563635,-0.004039299674332142,-0.363131582736969,0.0,25061.1875,0.0,1002.447509765625,11.375,-7.188368735817304e+25,-8.109383489105384e+37,-4.475745386697772e-16,0.0,4.531819456454457e+25
138,0.4779999852180481,58.987125396728516,0.08413893729448318,0.03442399576306343,-0.11954883486032486,0.03747512027621269,0.08176062256097794,-0.1202777624130249,-0.0071706571616232395,0.0055802008137106895,-0.7471526265144348,0.0,0.0,0.0,0.0,0.0,0.0,0.0,0.0,0.0,0.9310183525085449,0.0012891772203147411,-0.00435626320540905,-0.3649328351020813,0.0,25061.125,0.0,1002.4450073242188,11.375,4.563852074035424e-11,nan,8.572894444531533e+23,0.0,1.1301203836749174e-34
138,0.4779999852180481,59.0875244140625,0.03583075478672981,0.030980607494711876,0.009390792809426785,0.005353083368390799,0.04713989421725273,0.008998132310807705,-0.006052347365766764,0.007650138344615698,-0.7458155751228333,0.0,0.0,0.0,0.0,0.0,0.0,0.0,0.0,0.0,0.931261420249939,0.0024596352595835924,-0.004211729392409325,-0.3643083870410919,0.0,25061.125,0.0,1002.4450073242188,11.375,6.542456454252315e-20,6.319096027754496e-35,-1.9694252699706225e+24,0.0,-1.9563277756395197e+37
138,0.4779999852180481,59.18791198730469,0.07809681445360184,0.024057289585471153,-0.04055694490671158,0.04083581641316414,0.0703495666384697,-0.04130341857671738,-0.005360879935324192,0.0074790408834815025,-0.7456185817718506,0.0,0.0,0.0,0.0,0.0,0.0,0.0,0.0,0.0,0.9312978386878967,0.002506308490410447,-0.003858348121866584,-0.364218533039093,0.0,25061.125,0.0,1002.4450073242188,11.375,-0.4926444888114929,6.179893262449391e-38,-1.3490651738085058e-12,0.0,3.1221854916389622e-25
138,0.4779999852180481,59.288299560546875,0.08197909593582153,0.009288639761507511,-0.011728324927389622,0.05385291948914528,0.06234586238861084,-0.01253592036664486,-0.006230960600078106,0.007563387975096703,-0.7455915212631226,0.0,0.0,0.0,0.0,0.0,0.0,0.0,0.0,0.0,0.9313020706176758,0.0023871834855526686,-0.004278827924281359,-0.3642037808895111,0.0,25061.125,0.0,1002.4450073242188,11.375,-7.188368735817304e+25,-8.109383489105384e+37,-4.475745386697772e-16,0.0,4.531819456454457e+25
138,0.4779999852180481,59.402095794677734,0.13874852657318115,0.10497751832008362,-0.04694751650094986,0.031010739505290985,0.17077119648456573,-0.048482056707143784,-0.004164752550423145,0.008219956420361996,-0.7427441477775574,0.0,0.0,0.0,0.0,0.0,0.0,0.0,0.0,0.0,0.9318197965621948,0.00307408906519413,-0.0034318852704018354,-0.36288100481033325,0.0,25061.4375,0.0,1002.45751953125,11.4375,4.563852074035424e-11,nan,8.572894444531533e+23,0.0,1.1301203836749174e-34
138,0.4779999852180481,59.50249099731445,-0.0008375469478778541,0.04253227263689041,-0.06278613954782486,-0.02982802502810955,0.030244892463088036,-0.06282704323530197,-0.005979752633720636,0.0071761454455554485,-0.7450649738311768,0.0,0.0,0.0,0.0,0.0,0.0,0.0,0.0,0.0,0.9313985705375671,0.002253689104691148,-0.004090741742402315,-0.363959938287735,0.0,25061.4375,0.0,1002.45751953125,11.4375,6.542456454252315e-20,6.319096027754496e-35,-1.9694252699706225e+24,0.0,-1.9563277756395197e+37
138,0.4779999852180481,59.60287857055664,0.03311789408326149,0.0945369079709053,0.01671215146780014,-0.03963630273938179,0.09209427982568741,0.01614796370267868,-0.004781903699040413,0.00819087028503418,-0.7446542382240295,0.0,0.0,0.0,0.0,0.0,0.0,0.0,0.0,0.0,0.9314725995063782,0.0029450065921992064,-0.003716959385201335,-0.3637693524360657,0.0,25061.4375,0.0,1002.45751953125,11.4375,-0.4926444888114929,6.179893262449391e-38,-1.3490651738085058e-12,0.0,3.1221854916389622e-25
138,0.4779999852180481,59.70327377319336,-0.0030429144389927387,0.026172440499067307,0.023406945168972015,-0.01985551044344902,0.017385229468345642,0.023358799517154694,-0.004961094353348017,0.008489723317325115,-0.7444794178009033,0.0,0.0,0.0,0.0,0.0,0.0,0.0,0.0,0.0,0.9315038919448853,0.0030519363936036825,-0.0038545052520930767,-0.36368700861930847,0.0,25061.4375,0.0,1002.45751953125,11.4375,-7.188368735817304e+25,-8.109383489105384e+37,-4.475745386697772e-16,0.0,4.531819456454457e+25
138,0.4779999852180481,59.81706237792969,0.1185595691204071,0.03249732404947281,0.04660984128713608,0.06550323963165283,0.10467374324798584,0.045137353241443634,-0.007973914965987206,0.009105879813432693,-0.7448586821556091,0.0,0.0,0.0,0.0,0.0,0.0,0.0,0.0,0.0,0.9314318895339966,0.002789994003251195,-0.005370297469198704,-0.3638542592525482,0.0,25062.1875,0.0,1002.4874877929688,11.4375,4.563852074035424e-11,nan,8.572894444531533e+23,0.0,1.1301203836749174e-34
138,0.4779999852180481,59.91746520996094,0.05118021368980408,-0.013373911380767822,-0.062199629843235016,0.04625105857849121,0.02438190206885338,-0.06271624565124512,-0.007007475011050701,0.007775106932967901,-0.7450265884399414,0.0,0.0,0.0,0.0,0.0,0.0,0.0,0.0,0.0,0.9314041137695312,0.0023456779308617115,-0.004678303375840187,-0.3639383912086487,0.0,25062.1875,0.0,1002.4874877929688,11.4375,6.542456454252315e-20,6.319096027754496e-35,-1.9694252699706225e+24,0.0,-1.9563277756395197e+37
138,0.4779999852180481,60.017852783203125,-0.030911307781934738,0.011884520761668682,-0.05592159181833267,-0.031110625714063644,-0.012644913047552109,-0.0556429885327816,-0.006110766436904669,0.007157731801271439,-0.7458313703536987,0.0,0.0,0.0,0.0,0.0,0.0,0.0,0.0,0.0,0.9312589168548584,0.0022196804638952017,-0.004149254877120256,-0.36431658267974854,0.0,25062.1875,0.0,1002.4874877929688,11.4375,-0.4926444888114929,6.179893262449391e-38,-1.3490651738085058e-12,0.0,3.1221854916389622e-25
138,0.4779999852180481,60.13164520263672,0.10972057282924652,0.13982824981212616,-0.04063037782907486,-0.015453995205461979,0.1768980324268341,-0.04134111851453781,-0.007444482296705246,0.004661149810999632,-0.7506834268569946,0.0,0.0,0.0,0.0,0.0,0.0,0.0,0.0,0.0,0.9303728342056274,0.0008037630468606949,-0.004317460581660271,-0.3665773868560791,0.0,25061.25,0.0,1002.4500122070312,11.4375,-7.188368735817304e+25,-8.109383489105384e+37,-4.475745386697772e-16,0.0,4.531819456454457e+25
138,0.4779999852180481,60.232032775878906,0.18596972525119781,0.046176690608263016,0.0323924645781517,0.10437598079442978,0.16105473041534424,0.030540311709046364,-0.006936158053576946,0.007012796122580767,-0.7527474761009216,0.0,0.0,0.0,0.0,0.0,0.0,0.0,0.0,0.0,0.9299929738044739,0.001986234448850155,-0.0045140753500163555,-0.3675331771373749,0.0,25061.25,0.0,1002.4500122070312,11.4375,4.563852074035424e-11,nan,8.572894444531533e+23,0.0,1.1301203836749174e-34
138,0.4779999852180481,60.33243179321289,-0.08052241057157516,0.11660518497228622,-0.01313785556703806,-0.13856074213981628,0.02991258166730404,-0.0126119963824749,-0.005354521330446005,0.007210063748061657,-0.7530953288078308,0.0,0.0,0.0,0.0,0.0,0.0,0.0,0.0,0.0,0.9299300312995911,0.0023679714649915695,-0.003815283067524433,-0.3676980435848236,0.0,25061.25,0.0,1002.4500122070312,11.4375,6.542456454252315e-20,6.319096027754496e-35,-1.9694252699706225e+24,0.0,-1.9563277756395197e+37
138,0.4779999852180481,60.43281936645508,-0.04760168865323067,-0.02083754725754261,0.08026119321584702,-0.020180504769086838,-0.047088783234357834,0.08072936534881592,-0.00499429227784276,0.007743054069578648,-0.7509260177612305,0.0,0.0,0.0,0.0,0.0,0.0,0.0,0.0,0.0,0.9303278923034668,0.002686086343601346,-0.0037428673822432756,-0.36668896675109863,0.0,25061.25,0.0,1002.4500122070312,11.4375,-0.4926444888114929,6.179893262449391e-38,-1.3490651738085058e-12,0.0,3.1221854916389622e-25
138,0.4779999852180481,60.54661560058594,0.015588467940688133,-0.05086517706513405,-0.10601905733346939,0.045625388622283936,-0.027298539876937866,-0.10603395849466324,-0.00413840776309371,0.006454728078097105,-0.7495228052139282,0.0,0.0,0.0,0.0,0.0,0.0,0.0,0.0,0.0,0.9305869340896606,0.0022459139581769705,-0.003106956137344241,-0.3660401701927185,0.0,25062.25,0.0,1002.489990234375,11.4375,-7.188368735817304e+25,-8.109383489105384e+37,-4.475745386697772e-16,0.0,4.531819456454457e+25
138,0.4779999852180481,60.647003173828125,0.06715178489685059,0.014874578453600407,0.03793712705373764,0.039207637310028076,0.05681965500116348,0.03747040778398514,-0.003327472833916545,0.0059280009008944035,-0.7484670877456665,0.0,0.0,0.0,0.0,0.0,0.0,0.0,0.0,0.0,0.930780827999115,0.002150643849745393,-0.0026320950128138065,-0.36555108428001404,0.0,25062.25,0.0,1002.489990234375,11.4375,4.563852074035424e-11,nan,8.572894444531533e+23,0.0,1.1301203836749174e-34
138,0.4779999852180481,60.747398376464844,0.0035049172583967447,0.0016311774961650372,-0.177826926112175,0.0008249799138866365,0.0024496717378497124,-0.1778487116098404,-0.0035819043405354023,0.006349009461700916,-0.7473961114883423,0.0,0.0,0.0,0.0,0.0,0.0,0.0,0.0,0.0,0.9309757947921753,0.0023015851620584726,-0.0028262233827263117,-0.3650515377521515,0.0,25062.25,0.0,1002.489990234375,11.4375,6.542456454252315e-20,6.319096027754496e-35,-1.9694252699706225e+24,0.0,-1.9563277756395197e+37
138,0.4779999852180481,60.84779357910156,0.010557038709521294,0.015392782166600227,0.0951356515288353,-0.00219975458458066,0.01903901807963848,0.09503529965877533,-0.006090597249567509,0.006121024023741484,-0.750618040561676,0.0,0.0,0.0,0.0,0.0,0.0,0.0,0.0,0.0,0.930385410785675,0.0017311718547716737,-0.003955172374844551,-0.36654651165008545,0.0,25062.25,0.0,1002.489990234375,11.4375,-0.4926444888114929,6.179893262449391e-38,-1.3490651738085058e-12,0.0,3.1221854916389622e-25
138,0.4779999852180481,60.96158218383789,0.15257041156291962,0.06397368758916855,-0.03256324678659439,0.0681578516960144,0.1504041850566864,-0.034107934683561325,-0.004769760183990002,0.008100660517811775,-0.7480936050415039,0.0,0.0,0.0,0.0,0.0,0.0,0.0,0.0,0.0,0.9308457970619202,0.00289884302765131,-0.0036998866125941277,-0.36537089943885803,0.0,25062.375,0.0,1002.4949951171875,11.4375,-7.188368735817304e+25,-8.109383489105384e+37,-4.475745386697772e-16,0.0,4.531819456454457e+25
138,0.4779999852180481,61.06197738647461,0.2610132396221161,0.034338124096393585,-0.0026264572516083717,0.168035089969635,0.2026049643754959,-0.0053114029578864574,-0.005566296633332968,0.00863453559577465,-0.7476364374160767,0.0,0.0,0.0,0.0,0.0,0.0,0.0,0.0,0.0,0.930928111076355,0.003002748591825366,-0.004167457111179829,-0.3651551604270935,0.0,25062.375,0.0,1002.4949951171875,11.4375,4.563852074035424e-11,nan,8.572894444531533e+23,0.0,1.1301203836749174e-34
138,0.4779999852180481,61.16237258911133,0.010293742641806602,0.02056621015071869,-0.02670387178659439,-0.0066084968857467175,0.021865125745534897,-0.026837486773729324,-0.0065409354865550995,0.008032171986997128,-0.7476038336753845,0.0,0.0,0.0,0.0,0.0,0.0,0.0,0.0,0.0,0.9309343099594116,0.0025444841012358665,-0.004511096514761448,-0.36513882875442505,0.0,25062.375,0.0,1002.4949951171875,11.4375,6.542456454252315e-20,6.319096027754496e-35,-1.9694252699706225e+24,0.0,-1.9563277756395197e+37
138,0.4779999852180481,61.262760162353516,0.10600772500038147,0.10826966911554337,0.024787865579128265,0.0042242081835865974,0.15167929232120514,0.02344280667603016,-0.006167655810713768,0.008703750558197498,-0.7479695677757263,0.0,0.0,0.0,0.0,0.0,0.0,0.0,0.0,0.0,0.9308668971061707,0.0029244208708405495,-0.004460491705685854,-0.3653084933757782,0.0,25061.6875,0.0,1002.467529296875,11.4375,-0.4926444888114929,6.179893262449391e-38,-1.3490651738085058e-12,0.0,3.1221854916389622e-25
138,0.4779999852180481,61.37655258178711,0.05610605329275131,0.09112116694450378,-0.04069045931100845,-0.021366463974118233,0.10462482273578644,-0.041274409741163254,-0.006581923924386501,0.006910946685820818,-0.7503786683082581,0.0,0.0,0.0,0.0,0.0,0.0,0.0,0.0,0.0,0.9304280281066895,0.0020091033075004816,-0.004328264854848385,-0.36643245816230774,0.0,25061.6875,0.0,1002.467529296875,11.4375,-7.188368735817304e+25,-8.109383489105384e+37,-4.475745386697772e-16,0.0,4.531819456454457e+25
138,0.4779999852180481,61.47694396972656,0.045031510293483734,0.05185362324118614,0.0023641204461455345,-0.002388547407463193,0.06865277141332626,0.0017995925154536963,-0.004643392749130726,0.008385606110095978,-0.75004643201828,0.0,0.0,0.0,0.0,0.0,0.0,0.0,0.0,0.0,0.9304881691932678,0.003050942672416568,-0.0036961087025702,-0.36627936363220215,0.0,25061.6875,0.0,1002.467529296875,11.4375,4.563852074035424e-11,nan,8.572894444531533e+23,0.0,1.1301203836749174e-34
138,0.4779999852180481,61.57733917236328,0.06013580784201622,0.027185775339603424,-0.0046739960089325905,0.02548776939511299,0.06082000210881233,-0.005334729794412851,-0.00399565976113081,0.009185710921883583,-0.7493916749954224,0.0,0.0,0.0,0.0,0.0,0.0,0.0,0.0,0.0,0.9306069612503052,0.0035429783165454865,-0.003540125908330083,-0.36597490310668945,0.0,25061.6875,0.0,1002.467529296875,11.4375,6.542456454252315e-20,6.319096027754496e-35,-1.9694252699706225e+24,0.0,-1.9563277756395197e+37
138,0.4779999852180481,61.69113540649414,0.11177078634500504,0.051914285868406296,-0.025764502584934235,0.04600808024406433,0.11406553536653519,-0.026900924742221832,-0.006299037020653486,0.007413099519908428,-0.7519522309303284,0.0,0.0,0.0,0.0,0.0,0.0,0.0,0.0,0.0,0.9301391243934631,0.002291169948875904,-0.004290468525141478,-0.36716392636299133,0.0,25061.375,0.0,1002.4550170898438,11.4375,-0.4926444888114929,6.179893262449391e-38,-1.3490651738085058e-12,0.0,3.1221854916389622e-25
138,0.4779999852180481,61.79152297973633,-0.046064674854278564,-0.07525362074375153,0.05146976560354233,0.017931634560227394,-0.08603256940841675,0.05206615477800369,-0.005500731524080038,0.008054841309785843,-0.7506725788116455,0.0,0.0,0.0,0.0,0.0,0.0,0.0,0.0,0.0,0.9303736686706543,0.0027387714944779873,-0.0040352619253098965,-0.36656931042671204,0.0,25061.375,0.0,1002.4550170898438,11.4375,-7.188368735817304e+25,-8.109383489105384e+37,-4.475745386697772e-16,0.0,4.531819456454457e+25
138,0.4779999852180481,61.891910552978516,0.021505629643797874,0.015447179786860943,-0.01932624727487564,0.005175931844860315,0.025757957249879837,-0.019604386761784554,-0.0046039544977247715,0.009834260679781437,-0.7477279901504517,0.0,0.0,0.0,0.0,0.0,0.0,0.0,0.0,0.0,0.9309098720550537,0.003736712271347642,-0.003938736394047737,-0.3651978671550751,0.0,25061.375,0.0,1002.4550170898438,11.4375,4.563852074035424e-11,nan,8.572894444531533e+23,0.0,1.1301203836749174e-34
138,0.4779999852180481,61.992431640625,-0.019096985459327698,0.003659019246697426,-0.019811667501926422,-0.0166037417948246,-0.010502249002456665,-0.019611001014709473,-0.006828673649579287,0.008405445143580437,-0.7498265504837036,0.0,0.0,0.0,0.0,0.0,0.0,0.0,0.0,0.0,0.9305272102355957,0.002660454949364066,-0.004716136492788792,-0.36617159843444824,0.0,25061.375,0.0,1002.4550170898438,11.4375,6.542456454252315e-20,6.319096027754496e-35,-1.9694252699706225e+24,0.0,-1.9563277756395197e+37
138,0.4779999852180481,62.106224060058594,0.005573719274252653,0.02425633743405342,0.023791275918483734,-0.012234864756464958,0.021782774478197098,0.023690946400165558,-0.008582169190049171,0.009507298469543457,-0.7492468357086182,0.0,0.0,0.0,0.0,0.0,0.0,0.0,0.0,0.0,0.9306301474571228,0.0028537006583064795,-0.005732872989028692,-0.3658941686153412,0.0,25060.375,0.0,1002.4149780273438,11.4375,-0.4926444888114929,6.179893262449391e-38,-1.3490651738085058e-12,0.0,3.1221854916389622e-25
138,0.4779999852180481,62.20661544799805,0.005307267419993877,0.07241594791412354,-0.01959613710641861,-0.045828718692064285,0.05633227154612541,-0.019559115171432495,-0.009080701507627964,0.006711283233016729,-0.7530915141105652,0.0,0.0,0.0,0.0,0.0,0.0,0.0,0.0,0.0,0.929927408695221,0.0014509704196825624,-0.005456118378788233,-0.367688924074173,0.0,25060.375,0.0,1002.4149780273438,11.4375,-7.188368735817304e+25,-8.109383489105384e+37,-4.475745386697772e-16,0.0,4.531819456454457e+25
138,0.4779999852180481,62.307003021240234,0.06864838302135468,0.0679531916975975,-0.07603458315134048,0.0033053404185920954,0.09580625593662262,-0.07695116102695465,-0.006994760129600763,0.009278355166316032,-0.7507503628730774,0.0,0.0,0.0,0.0,0.0,0.0,0.0,0.0,0.0,0.9303565621376038,0.0030338887590914965,-0.004954629112035036,-0.36659881472587585,0.0,25060.375,0.0,1002.4149780273438,11.4375,4.563852074035424e-11,nan,8.572894444531533e+23,0.0,1.1301203836749174e-34
138,0.4779999852180481,62.40739822387695,-0.011976233683526516,0.07498065382242203,-0.19179348647594452,-0.06086798012256622,0.044979412108659744,-0.19188936054706573,-0.005484157707542181,0.009337357245385647,-0.7488219738006592,0.0,0.0,0.0,0.0,0.0,0.0,0.0,0.0,0.0,0.93071049451828,0.003342360956594348,-0.004259525798261166,-0.3657056391239166,0.0,25060.375,0.0,1002.4149780273438,11.4375,6.542456454252315e-20,6.319096027754496e-35,-1.9694252699706225e+24,0.0,-1.9563277756395197e+37
138,0.4779999852180481,62.52119445800781,0.08328289538621902,-0.02324417419731617,0.02425285428762436,0.07688599824905396,0.04006892070174217,0.023397115990519524,-0.007544441614300013,0.006905961316078901,-0.7518942356109619,0.0,0.0,0.0,0.0,0.0,0.0,0.0,0.0,0.0,0.9301491379737854,0.0018268043641000986,-0.004776512738317251,-0.36713525652885437,0.0,25060.875,0.0,1002.4349975585938,11.4375,-0.4926444888114929,6.179893262449391e-38,-1.3490651738085058e-12,0.0,3.1221854916389622e-25
138,0.4779999852180481,62.621585845947266,0.06946033984422684,0.07585114240646362,-0.17681221663951874,-0.0019431556575000286,0.10143313556909561,-0.17761632800102234,-0.006064386107027531,0.007970228791236877,-0.7499144673347473,0.0,0.0,0.0,0.0,0.0,0.0,0.0,0.0,0.0,0.9305122494697571,0.0025977171026170254,-0.004280973691493273,-0.36621543765068054,0.0,25060.875,0.0,1002.4349975585938,11.4375,-7.188368735817304e+25,-8.109383489105384e+37,-4.475745386697772e-16,0.0,4.531819456454457e+25
138,0.4779999852180481,62.72197723388672,0.15704673528671265,0.053819768130779266,-0.0033388519659638405,0.07830560952425003,0.1463286131620407,-0.00520715769380331,-0.005199689418077469,0.009983562864363194,-0.7493104338645935,0.0,0.0,0.0,0.0,0.0,0.0,0.0,0.0,0.0,0.9306200742721558,0.003694058395922184,-0.004246210213750601,-0.3659323453903198,0.0,25060.875,0.0,1002.4349975585938,11.4375,4.563852074035424e-11,nan,8.572894444531533e+23,0.0,1.1301203836749174e-34
138,0.4779999852180481,62.835777282714844,0.0714140310883522,0.10812676697969437,-0.0469999685883522,-0.02206830494105816,0.12735040485858917,-0.04790526255965233,-0.011053189635276794,0.008989520370960236,-0.7507807016372681,0.0,0.0,0.0,0.0,0.0,0.0,0.0,0.0,0.0,0.9303463101387024,0.0021554469130933285,-0.0067895930260419846,-0.366601824760437,0.0,25062.0625,0.0,1002.4824829101562,11.4375,6.542456454252315e-20,6.319096027754496e-35,-1.9694252699706225e+24,0.0,-1.9563277756395197e+37
138,0.4779999852180481,62.9361686706543,0.009934543631970882,0.05423895642161369,-0.03340248018503189,-0.029908379539847374,0.04614276811480522,-0.03365340083837509,-0.008187714964151382,0.010685286484658718,-0.7485745549201965,0.0,0.0,0.0,0.0,0.0,0.0,0.0,0.0,0.0,0.9307515621185303,0.003475945210084319,-0.005763669963926077,-0.36557912826538086,0.0,25062.0625,0.0,1002.4824829101562,11.4375,-0.4926444888114929,6.179893262449391e-38,-1.3490651738085058e-12,0.0,3.1221854916389622e-25
138,0.4779999852180481,63.036556243896484,0.0693368911743164,0.03454318270087242,0.010252914391458035,0.0274082962423563,0.07258079946041107,0.009309794753789902,-0.007465710397809744,0.010184369049966335,-0.7479909658432007,0.0,0.0,0.0,0.0,0.0,0.0,0.0,0.0,0.0,0.9308596849441528,0.0033763775136321783,-0.00533512094989419,-0.3653111755847931,0.0,25062.0625,0.0,1002.4824829101562,11.4375,-7.188368735817304e+25,-8.109383489105384e+37,-4.475745386697772e-16,0.0,4.531819456454457e+25
138,0.4779999852180481,63.13694381713867,-0.0067542861215770245,0.05410146340727806,0.030736885964870453,-0.04152841493487358,0.035310592502355576,0.03075443021953106,-0.0079081691801548,0.00885862484574318,-0.7486699223518372,0.0,0.0,0.0,0.0,0.0,0.0,0.0,0.0,0.0,0.9307372570037842,0.0026767116505652666,-0.00529980706050992,-0.3656294047832489,0.0,25062.0625,0.0,1002.4824829101562,11.4375,4.563852074035424e-11,nan,8.572894444531533e+23,0.0,1.1301203836749174e-34
138,0.4779999852180481,63.2507438659668,0.035424839705228806,0.07312274724245071,-0.0980701819062233,-0.02473580278456211,0.0768166035413742,-0.0985226035118103,-0.007659346330910921,0.0082850968465209,-0.7508013248443604,0.0,0.0,0.0,0.0,0.0,0.0,0.0,0.0,0.0,0.9303480386734009,0.002449888037517667,-0.005081777460873127,-0.36662325263023376,0.0,25061.125,0.0,1002.4450073242188,11.4375,6.542456454252315e-20,6.319096027754496e-35,-1.9694252699706225e+24,0.0,-1.9563277756395197e+37
138,0.4779999852180481,63.35113525390625,0.06824749708175659,0.07970444113016129,-0.018964804708957672,-0.004723689518868923,0.10469719767570496,-0.019651567563414574,-0.007814912125468254,0.0069036176428198814,-0.7517356276512146,0.0,0.0,0.0,0.0,0.0,0.0,0.0,0.0,0.0,0.9301779866218567,0.001776450197212398,-0.004901730455458164,-0.36706089973449707,0.0,25061.125,0.0,1002.4450073242188,11.4375,-0.4926444888114929,6.179893262449391e-38,-1.3490651738085058e-12,0.0,3.1221854916389622e-25
138,0.4779999852180481,63.45152282714844,0.05511440709233284,0.039307303726673126,-0.1053333654999733,0.012792279943823814,0.06558571755886078,-0.10588863492012024,-0.006025700829923153,0.00723242899402976,-0.7515960931777954,0.0,0.0,0.0,0.0,0.0,0.0,0.0,0.0,0.0,0.9302050471305847,0.0022580644581466913,-0.004129778128117323,-0.3669993579387665,0.0,25061.125,0.0,1002.4450073242188,11.4375,-7.188368735817304e+25,-8.109383489105384e+37,-4.475745386697772e-16,0.0,4.531819456454457e+25
138,0.4779999852180481,63.551910400390625,0.15270653367042542,-0.04441375657916069,-0.07598117738962173,0.1418536752462387,0.07074244320392609,-0.07705550640821457,-0.00237471517175436,0.010371905751526356,-0.7496111392974854,0.0,0.0,0.0,0.0,0.0,0.0,0.0,0.0,0.0,0.9305641651153564,0.004391215741634369,-0.003003435442224145,-0.3660792410373688,0.0,25061.125,0.0,1002.4450073242188,11.4375,4.563852074035424e-11,nan,8.572894444531533e+23,0.0,1.1301203836749174e-34
138,0.4779999852180481,63.665714263916016,0.07555778324604034,0.018621578812599182,0.0746278390288353,0.043137989938259125,0.06575099378824234,0.07376168668270111,-0.008058717474341393,0.007948927581310272,-0.7508178949356079,0.0,0.0,0.0,0.0,0.0,0.0,0.0,0.0,0.0,0.9303449392318726,0.002220251364633441,-0.005205947905778885,-0.36663076281547546,0.0,25061.5625,0.0,1002.4625244140625,11.4375,6.542456454252315e-20,6.319096027754496e-35,-1.9694252699706225e+24,0.0,-1.9563277756395197e+37
138,0.4779999852180481,63.76610565185547,0.00900664646178484,0.0474858395755291,0.016412697732448578,-0.02561725676059723,0.04105539992451668,0.016234803944826126,-0.0062828813679516315,0.008271679282188416,-0.7486056685447693,0.0,0.0,0.0,0.0,0.0,0.0,0.0,0.0,0.0,0.9307511448860168,0.0027008620090782642,-0.004436061251908541,-0.3656051754951477,0.0,25061.5625,0.0,1002.4625244140625,11.4375,-0.4926444888114929,6.179893262449391e-38,-1.3490651738085058e-12,0.0,3.1221854916389622e-25
138,0.4779999852180481,63.866493225097656,0.027295872569084167,0.015368734486401081,-0.08394435793161392,0.009076899848878384,0.029095640406012535,-0.08425463736057281,-0.005671968683600426,0.008760078810155392,-0.7480867505073547,0.0,0.0,0.0,0.0,0.0,0.0,0.0,0.0,0.0,0.9308457374572754,0.003040936077013612,-0.004240249749273062,-0.3653641939163208,0.0,25061.5625,0.0,1002.4625244140625,11.4375,-7.188368735817304e+25,-8.109383489105384e+37,-4.475745386697772e-16,0.0,4.531819456454457e+25
138,0.4779999852180481,63.966880798339844,0.0691782608628273,0.10749179124832153,0.03831382840871811,-0.02248643897473812,0.12601864337921143,0.0377020537853241,-0.007429579738527536,0.00619214354082942,-0.7509403824806213,0.0,0.0,0.0,0.0,0.0,0.0,0.0,0.0,0.0,0.9303249716758728,0.0015181025955826044,-0.004591335542500019,-0.36669355630874634,0.0,25061.9375,0.0,1002.4774780273438,11.4375,4.563852074035424e-11,nan,8.572894444531533e+23,0.0,1.1301203836749174e-34
138,0.4779999852180481,64.08068084716797,0.05330756679177284,0.004909941460937262,-0.019096411764621735,0.035603661090135574,0.03971033915877342,-0.01964416541159153,-0.005162084009498358,0.009142303839325905,-0.7488660216331482,0.0,0.0,0.0,0.0,0.0,0.0,0.0,0.0,0.0,0.9307028651237488,0.0033103986643254757,-0.004074054304510355,-0.36572739481925964,0.0,25061.9375,0.0,1002.4774780273438,11.4375,6.542456454252315e-20,6.319096027754496e-35,-1.9694252699706225e+24,0.0,-1.9563277756395197e+37
138,0.4779999852180481,64.18106842041016,0.05022840574383736,0.04270816221833229,-0.06976035982370377,0.00720200315117836,0.06509433686733246,-0.07017192244529724,-0.004396996460855007,0.005816036369651556,-0.752002477645874,0.0,0.0,0.0,0.0,0.0,0.0,0.0,0.0,0.0,0.9301328659057617,0.0018975473940372467,-0.0031127375550568104,-0.36719414591789246,0.0,25061.9375,0.0,1002.4774780273438,11.4375,-0.4926444888114929,6.179893262449391e-38,-1.3490651738085058e-12,0.0,3.1221854916389622e-25
138,0.4779999852180481,64.28146362304688,0.08231859654188156,0.004188871011137962,-0.011957206763327122,0.05731949582695961,0.05908971652388573,-0.01263492088764906,-0.003677134867757559,0.007895905524492264,-0.7502025365829468,0.0,0.0,0.0,0.0,0.0,0.0,0.0,0.0,0.0,0.9304605722427368,0.0029998356476426125,-0.0031571120489388704,-0.3663550615310669,0.0,25061.9375,0.0,1002.4774780273438,11.4375,-7.188368735817304e+25,-8.109383489105384e+37,-4.475745386697772e-16,0.0,4.531819456454457e+25
138,0.4779999852180481,64.39525604248047,0.05066179111599922,0.012821629643440247,-0.06949714571237564,0.028063083067536354,0.043305594474077225,-0.06998453289270401,-0.0037326044403016567,0.00877499207854271,-0.7501375675201416,0.0,0.0,0.0,0.0,0.0,0.0,0.0,0.0,0.0,0.9304711818695068,0.0033987611532211304,-0.003343836171552539,-0.3663232922554016,0.0,25061.625,0.0,1002.4650268554688,11.4375,4.563852074035424e-11,nan,8.572894444531533e+23,0.0,1.1301203836749174e-34
138,0.4779999852180481,64.49565124511719,0.1315886676311493,-0.04216264933347702,0.01033779140561819,0.12522344291210175,0.05860414728522301,0.009190723299980164,-0.004073418211191893,0.01087863091379404,-0.7472436428070068,0.0,0.0,0.0,0.0,0.0,0.0,0.0,0.0,0.0,0.9309961199760437,0.004320640116930008,-0.003881450742483139,-0.3649718463420868,0.0,25061.625,0.0,1002.4650268554688,11.4375,6.542456454252315e-20,6.319096027754496e-35,-1.9694252699706225e+24,0.0,-1.9563277756395197e+37
138,0.4779999852180481,64.59603881835938,0.009952566586434841,-0.002030358649790287,-0.1127806082367897,0.008202007040381432,0.004070737399160862,-0.11286536604166031,-0.004294850397855043,0.010583071038126945,-0.7461420297622681,0.0,0.0,0.0,0.0,0.0,0.0,0.0,0.0,0.0,0.9311976432800293,0.004144811071455479,-0.003928308840841055,-0.36445891857147217,0.0,25061.625,0.0,1002.4650268554688,11.4375,-0.4926444888114929,6.179893262449391e-38,-1.3490651738085058e-12,0.0,3.1221854916389622e-25
138,0.4779999852180481,64.6964340209961,0.0886949822306633,0.035989910364151,-0.04719928652048111,0.04028715565800667,0.08623524755239487,-0.04827093333005905,-0.006150164175778627,0.009522717446088791,-0.7475383281707764,0.0,0.0,0.0,0.0,0.0,0.0,0.0,0.0,0.0,0.9309442639350891,0.0033097818959504366,-0.0046012247912585735,-0.36510592699050903,0.0,25061.625,0.0,1002.4650268554688,11.4375,-7.188368735817304e+25,-8.109383489105384e+37,-4.475745386697772e-16,0.0,4.531819456454457e+25
138,0.4779999852180481,64.81022644042969,0.08027061820030212,0.15945124626159668,0.01016517635434866,-0.049885526299476624,0.1714591681957245,0.009168893098831177,-0.008028576150536537,0.008149867877364159,-0.7500823736190796,0.0,0.0,0.0,0.0,0.0,0.0,0.0,0.0,0.0,0.9304795265197754,0.0023211718071252108,-0.0052279094234108925,-0.3662881553173065,0.0,25061.75,0.0,1002.469970703125,11.4375,4.563852074035424e-11,nan,8.572894444531533e+23,0.0,1.1301203836749174e-34
138,0.4779999852180481,64.9106216430664,-0.004816114902496338,-0.011204331181943417,0.05930038541555405,0.00455235643312335,-0.01102677546441555,0.05935398116707802,-0.007600637152791023,0.007725791074335575,-0.7489883303642273,0.0,0.0,0.0,0.0,0.0,0.0,0.0,0.0,0.0,0.9306807518005371,0.002204964403063059,-0.004949943162500858,-0.365781307220459,0.0,25061.75,0.0,1002.469970703125,11.4375,6.542456454252315e-20,6.319096027754496e-35,-1.9694252699706225e+24,0.0,-1.9563277756395197e+37
138,0.4779999852180481,65.0110092163086,0.0476972870528698,0.10405472666025162,-0.11238674074411392,-0.037118274718523026,0.1077943816781044,-0.11285118758678436,-0.00892419833689928,0.0073205819353461266,-0.7508182525634766,0.0,0.0,0.0,0.0,0.0,0.0,0.0,0.0,0.0,0.9303444623947144,0.0017692919354885817,-0.005493359174579382,-0.3666304349899292,0.0,25061.75,0.0,1002.469970703125,11.4375,-0.4926444888114929,6.179893262449391e-38,-1.3490651738085058e-12,0.0,3.1221854916389622e-25
138,0.4779999852180481,65.11139678955078,0.010079978033900261,0.011584795080125332,-0.07690910249948502,-0.0010702847503125668,0.014730173163115978,-0.07702338695526123,-0.007441725116223097,0.008027790114283562,-0.7484840750694275,0.0,0.0,0.0,0.0,0.0,0.0,0.0,0.0,0.0,0.9307727813720703,0.0023758062161505222,-0.004930628929287195,-0.3655462861061096,0.0,25061.75,0.0,1002.469970703125,11.4375,-7.188368735817304e+25,-8.109383489105384e+37,-4.475745386697772e-16,0.0,4.531819456454457e+25
138,0.4779999852180481,65.2251968383789,0.06589436531066895,0.07814871519804001,-0.1696052998304367,-0.006785007659345865,0.10084350407123566,-0.17029143869876862,-0.008758731186389923,0.007297338917851448,-0.7523970603942871,0.0,0.0,0.0,0.0,0.0,0.0,0.0,0.0,0.0,0.9300550222396851,0.0017845421098172665,-0.005413538310676813,-0.3673652410507202,0.0,25060.875,0.0,1002.4349975585938,11.4375,4.563852074035424e-11,nan,8.572894444531533e+23,0.0,1.1301203836749174e-34
138,0.4779999852180481,65.32559204101562,0.07538033276796341,-0.020910661667585373,-0.09043125063180923,0.06861274689435959,0.0354074127972126,-0.09129969775676727,-0.008389540947973728,0.008115478791296482,-0.7509427070617676,0.0,0.0,0.0,0.0,0.0,0.0,0.0,0.0,0.0,0.9303215146064758,0.0022367394994944334,-0.005390508100390434,-0.36668750643730164,0.0,25060.875,0.0,1002.4349975585938,11.4375,6.542456454252315e-20,6.319096027754496e-35,-1.9694252699706225e+24,0.0,-1.9563277756395197e+37
138,0.4779999852180481,65.42598724365234,0.06626106798648834,0.048587020486593246,-0.011453666724264622,0.015284406952559948,0.08060342073440552,-0.012319865636527538,-0.007237635552883148,0.00936481449753046,-0.7499486207962036,0.0,0.0,0.0,0.0,0.0,0.0,0.0,0.0,0.0,0.9305031895637512,0.0030316226184368134,-0.005082241725176573,-0.366225004196167,0.0,25060.875,0.0,1002.4349975585938,11.4375,-0.4926444888114929,6.179893262449391e-38,-1.3490651738085058e-12,0.0,3.1221854916389622e-25
138,0.4779999852180481,65.53977966308594,-0.0007672491483390331,-0.029844898730516434,-0.04123596101999283,0.019515136256814003,-0.022799238562583923,-0.04112205654382706,-0.005338981747627258,0.00966152548789978,-0.7479304671287537,0.0,0.0,0.0,0.0,0.0,0.0,0.0,0.0,0.0,0.930872917175293,0.003521657083183527,-0.0042496733367443085,-0.36529043316841125,0.0,25061.1875,0.0,1002.447509765625,11.4375,-7.188368735817304e+25,-8.109383489105384e+37,-4.475745386697772e-16,0.0,4.531819456454457e+25
138,0.4779999852180481,65.64016723632812,0.15071795880794525,0.09229487180709839,-0.03188423067331314,0.04775753244757652,0.16976654529571533,-0.033894773572683334,-0.0046538496389985085,0.010522428900003433,-0.7468275427818298,0.0,0.0,0.0,0.0,0.0,0.0,0.0,0.0,0.0,0.9310726523399353,0.004049750976264477,-0.00408579595386982,-0.3647771179676056,0.0,25061.1875,0.0,1002.447509765625,11.4375,4.563852074035424e-11,nan,8.572894444531533e+23,0.0,1.1301203836749174e-34
138,0.4779999852180481,65.74056243896484,0.11814664304256439,0.09189004451036453,-0.0325498953461647,0.024068916216492653,0.14739441871643066,-0.034016117453575134,-0.0048738280311226845,0.009141390211880207,-0.7471755146980286,0.0,0.0,0.0,0.0,0.0,0.0,0.0,0.0,0.0,0.9310117363929749,0.003366016549989581,-0.0039369030855596066,-0.3649412989616394,0.0,25061.1875,0.0,1002.447509765625,11.4375,6.542456454252315e-20,6.319096027754496e-35,-1.9694252699706225e+24,0.0,-1.9563277756395197e+37
138,0.4779999852180481,65.84095001220703,-0.020289810374379158,0.016815057024359703,0.02339073270559311,-0.026198873296380043,-0.0011787556577473879,0.0235320795327425,-0.004875804763287306,0.01038606371730566,-0.7460538148880005,0.0,0.0,0.0,0.0,0.0,0.0,0.0,0.0,0.0,0.9312140941619873,0.003947393968701363,-0.004162725526839495,-0.36441659927368164,0.0,25061.1875,0.0,1002.447509765625,11.4375,-0.4926444888114929,6.179893262449391e-38,-1.3490651738085058e-12,0.0,3.1221854916389622e-25
138,0.4779999852180481,65.95475006103516,0.05946316942572594,0.0930248573422432,-0.04000762850046158,-0.019841741770505905,0.10829315334558487,-0.040850650519132614,-0.009359203279018402,0.009469548240303993,-0.7460189461708069,0.0,0.0,0.0,0.0,0.0,0.0,0.0,0.0,0.0,0.9312185049057007,0.0027037838008254766,-0.006083173211663961,-0.36438941955566406,0.0,25061.5,0.0,1002.4600219726562,11.4375,-7.188368735817304e+25,-8.109383489105384e+37,-4.475745386697772e-16,0.0,4.531819456454457e+25
138,0.4779999852180481,66.05513763427734,0.031070780009031296,0.033557794988155365,-0.05518630892038345,-0.0004817071894649416,0.04533974453806877,-0.0555071160197258,-0.008114856667816639,0.007100848946720362,-0.747676432132721,0.0,0.0,0.0,0.0,0.0,0.0,0.0,0.0,0.0,0.9309204816818237,0.0018234283197671175,-0.005073738284409046,-0.36517101526260376,0.0,25061.5,0.0,1002.4600219726562,11.4375,4.563852074035424e-11,nan,8.572894444531533e+23,0.0,1.1301203836749174e-34
138,0.4779999852180481,66.15553283691406,0.06293106079101562,0.07875852286815643,-0.018827475607395172,-0.007351560052484274,0.10038115829229355,-0.019674910232424736,-0.005150346085429192,0.00881091970950365,-0.7461789846420288,0.0,0.0,0.0,0.0,0.0,0.0,0.0,0.0,0.0,0.9311938881874084,0.0031637167558073997,-0.004003746900707483,-0.3644773066043854,0.0,25061.5,0.0,1002.4600219726562,11.4375,6.542456454252315e-20,6.319096027754496e-35,-1.9694252699706225e+24,0.0,-1.9563277756395197e+37
138,0.4779999852180481,66.25592041015625,0.08979631215333939,0.07239256799221039,0.002949676476418972,0.0168076790869236,0.11413418501615524,0.001855048118159175,-0.004882298409938812,0.008872583508491516,-0.7461782693862915,0.0,0.0,0.0,0.0,0.0,0.0,0.0,0.0,0.0,0.9311941266059875,0.0032412810251116753,-0.0038901809602975845,-0.36447760462760925,0.0,25061.5,0.0,1002.4600219726562,11.4375,-0.4926444888114929,6.179893262449391e-38,-1.3490651738085058e-12,0.0,3.1221854916389622e-25
138,0.4779999852180481,66.36971282958984,0.022596394643187523,0.12818101048469543,-0.06964591890573502,-0.07106264680624008,0.10883684456348419,-0.06997006386518478,-0.006525510922074318,0.0072139548137784,-0.7479009032249451,0.0,0.0,0.0,0.0,0.0,0.0,0.0,0.0,0.0,0.9308810234069824,0.002165800193324685,-0.004354856908321381,-0.365278959274292,0.0,25061.3125,0.0,1002.4525146484375,11.4375,-7.188368735817304e+25,-8.109383489105384e+37,-4.475745386697772e-16,0.0,4.531819456454457e+25
138,0.4779999852180481,66.47010040283203,0.2242116779088974,0.09886619448661804,0.05424400418996811,0.09769662469625473,0.22523334622383118,0.05207769200205803,-0.007618436589837074,0.006323122885078192,-0.7472233176231384,0.0,0.0,0.0,0.0,0.0,0.0,0.0,0.0,0.0,0.9310044050216675,0.0015531382523477077,-0.004700321238487959,-0.3649631440639496,0.0,25061.3125,0.0,1002.4525146484375,11.4375,4.563852074035424e-11,nan,8.572894444531533e+23,0.0,1.1301203836749174e-34
138,0.4779999852180481,66.57050323486328,0.0659700334072113,0.022008361294865608,0.016980133950710297,0.033454425632953644,0.06115416809916496,0.01629800722002983,-0.009047884494066238,0.006218713242560625,-0.7494328022003174,0.0,0.0,0.0,0.0,0.0,0.0,0.0,0.0,0.0,0.9305988550186157,0.0012377623934298754,-0.005348047707229853,-0.36598852276802063,0.0,25061.3125,0.0,1002.4525146484375,11.4375,6.542456454252315e-20,6.319096027754496e-35,-1.9694252699706225e+24,0.0,-1.9563277756395197e+37
138,0.4779999852180481,66.67089080810547,0.00764427101239562,0.004921839572489262,0.023324929177761078,0.002352711744606495,0.008986459113657475,0.02324671670794487,-0.0034258533269166946,0.00788106583058834,-0.7460799217224121,0.0,0.0,0.0,0.0,0.0,0.0,0.0,0.0,0.0,0.9312137961387634,0.00304521806538105,-0.003031219122931361,-0.36443689465522766,0.0,25061.1875,0.0,1002.447509765625,11.4375,-0.4926444888114929,6.179893262449391e-38,-1.3490651738085058e-12,0.0,3.1221854916389622e-25
138,0.4779999852180481,66.7846908569336,-0.017314571887254715,-0.08075203746557236,-0.034558333456516266,0.04181081801652908,-0.07144523411989212,-0.03409211337566376,-0.0037948081735521555,0.008764487691223621,-0.7439134120941162,0.0,0.0,0.0,0.0,0.0,0.0,0.0,0.0,0.0,0.9316067099571228,0.003392954356968403,-0.00336030893959105,-0.36342570185661316,0.0,25061.1875,0.0,1002.447509765625,11.4375,-7.188368735817304e+25,-8.109383489105384e+37,-4.475745386697772e-16,0.0,4.531819456454457e+25
138,0.4779999852180481,66.88507843017578,0.02242983691394329,0.017029784619808197,-0.07688430696725845,0.004581904504448175,0.027081036940217018,-0.0771351009607315,-0.005397873464971781,0.008232583291828632,-0.7430217266082764,0.0,0.0,0.0,0.0,0.0,0.0,0.0,0.0,0.0,0.9317689538002014,0.0028556655161082745,-0.004009096417576075,-0.36300745606422424,0.0,25061.1875,0.0,1002.447509765625,11.4375,4.563852074035424e-11,nan,8.572894444531533e+23,0.0,1.1301203836749174e-34
138,0.4779999852180481,66.9854965209961,-0.0021417017560452223,0.005716641433537006,0.03781314939260483,-0.005227547604590654,0.0031147832050919533,0.03781598061323166,-0.005666630808264017,0.009214223362505436,-0.7420596480369568,0.0,0.0,0.0,0.0,0.0,0.0,0.0,0.0,0.0,0.93194180727005,0.00326628633774817,-0.004310905933380127,-0.36255645751953125,0.0,25061.1875,0.0,1002.447509765625,11.4375,6.542456454252315e-20,6.319096027754496e-35,-1.9694252699706225e+24,0.0,-1.9563277756395197e+37
138,0.4779999852180481,67.09928894042969,0.1463782787322998,-0.01808447577059269,-0.08250430971384048,0.11915778368711472,0.08531254529953003,-0.08416265994310379,-0.00909251719713211,0.0066840252839028835,-0.7443926930427551,0.0,0.0,0.0,0.0,0.0,0.0,0.0,0.0,0.0,0.9315178990364075,0.0014598435955122113,-0.0054503027349710464,-0.3636409044265747,0.0,25061.125,0.0,1002.4450073242188,11.4375,-0.4926444888114929,6.179893262449391e-38,-1.3490651738085058e-12,0.0,3.1221854916389622e-25
138,0.4779999852180481,67.19967651367188,0.07574158161878586,0.1248985081911087,-0.03283504396677017,-0.028943724930286407,0.14292606711387634,-0.033891066908836365,-0.007355924230068922,0.008864698000252247,-0.7429206967353821,0.0,0.0,0.0,0.0,0.0,0.0,0.0,0.0,0.0,0.931784987449646,0.002794994041323662,-0.005035907495766878,-0.36295390129089355,0.0,25061.125,0.0,1002.4450073242188,11.4375,-7.188368735817304e+25,-8.109383489105384e+37,-4.475745386697772e-16,0.0,4.531819456454457e+25
138,0.4779999852180481,67.3000717163086,0.09602271765470505,0.09759495407342911,-0.02505878359079361,0.004703045357018709,0.13654181361198425,-0.026589088141918182,-0.0061187418177723885,0.010983369313180447,-0.7417991161346436,0.0,0.0,0.0,0.0,0.0,0.0,0.0,0.0,0.0,0.9319855570793152,0.004009321331977844,-0.004841758403927088,-0.362429678440094,0.0,25061.125,0.0,1002.4450073242188,11.4375,4.563852074035424e-11,nan,8.572894444531533e+23,0.0,1.1301203836749174e-34
138,0.4779999852180481,67.40046691894531,0.0176521185785532,0.07895506918430328,0.07391544431447983,-0.04003950208425522,0.07052259147167206,0.07370349019765854,-0.007756080944091082,0.0074614849872887135,-0.7458698749542236,0.0,0.0,0.0,0.0,0.0,0.0,0.0,0.0,0.0,0.9312500953674316,0.0020612934604287148,-0.0049707298167049885,-0.364329993724823,0.0,25061.125,0.0,1002.4450073242188,11.4375,6.542456454252315e-20,6.319096027754496e-35,-1.9694252699706225e+24,0.0,-1.9563277756395197e+37
138,0.4779999852180481,67.51426696777344,0.010519273579120636,0.017800506204366684,0.0020131682977080345,-0.004327678121626377,0.02023155242204666,0.001874677138403058,-0.006307955831289291,0.00819903053343296,-0.745239794254303,0.0,0.0,0.0,0.0,0.0,0.0,0.0,0.0,0.0,0.9313651919364929,0.002669927664101124,-0.004429962951689959,-0.3640384078025818,0.0,25060.75,0.0,1002.4299926757812,11.4375,-0.4926444888114929,6.179893262449391e-38,-1.3490651738085058e-12,0.0,3.1221854916389622e-25
138,0.4779999852180481,67.6146469116211,0.0361388735473156,-0.0037190301809459925,-0.09113220125436783,0.02835017256438732,0.021246235817670822,-0.09148571640253067,-0.007369500119239092,0.006628882605582476,-0.7479277849197388,0.0,0.0,0.0,0.0,0.0,0.0,0.0,0.0,0.0,0.9308758974075317,0.0017392655136063695,-0.004640849307179451,-0.36529091000556946,0.0,25060.75,0.0,1002.4299926757812,11.4375,-7.188368735817304e+25,-8.109383489105384e+37,-4.475745386697772e-16,0.0,4.531819456454457e+25
138,0.4779999852180481,67.71504211425781,0.09645899385213852,0.06525348871946335,-0.03304675966501236,0.02649436891078949,0.11308950930833817,-0.03410309925675392,-0.004626079462468624,0.008246010169386864,-0.7451595067977905,0.0,0.0,0.0,0.0,0.0,0.0,0.0,0.0,0.0,0.9313806891441345,0.0029981080442667007,-0.0036551733501255512,-0.3640049695968628,0.0,25060.75,0.0,1002.4299926757812,11.4375,4.563852074035424e-11,nan,8.572894444531533e+23,0.0,1.1301203836749174e-34
138,0.4779999852180481,67.81543731689453,0.11165784299373627,-0.004276820924133062,0.02471061795949936,0.08517418801784515,0.07271873950958252,0.02352684549987316,-0.005231333430856466,0.010170135647058487,-0.7440502643585205,0.0,0.0,0.0,0.0,0.0,0.0,0.0,0.0,0.0,0.9315789937973022,0.003786366432905197,-0.004285127390176058,-0.3634829819202423,0.0,25060.75,0.0,1002.4299926757812,11.4375,6.542456454252315e-20,6.319096027754496e-35,-1.9694252699706225e+24,0.0,-1.9563277756395197e+37
138,0.4779999852180481,67.92922973632812,0.07906541973352432,0.07232416421175003,0.03190227597951889,0.009304393082857132,0.10708782821893692,0.03074587695300579,-0.0056487335823476315,0.01032570842653513,-0.7446430325508118,0.0,0.0,0.0,0.0,0.0,0.0,0.0,0.0,0.0,0.9314708709716797,0.003781629726290703,-0.004508941899985075,-0.36375755071640015,0.0,25060.75,0.0,1002.4299926757812,11.4375,-0.4926444888114929,6.179893262449391e-38,-1.3490651738085058e-12,0.0,3.1221854916389622e-25
138,0.4779999852180481,68.02961730957031,0.14454829692840576,0.09581420570611954,-0.0390491858124733,0.04133397713303566,0.16795481741428375,-0.04100712388753891,-0.0067764874547719955,0.009974345564842224,-0.7431976199150085,0.0,0.0,0.0,0.0,0.0,0.0,0.0,0.0,0.0,0.9317334294319153,0.0034164455719292164,-0.004967801738530397,-0.36308178305625916,0.0,25060.75,0.0,1002.4299926757812,11.4375,-7.188368735817304e+25,-8.109383489105384e+37,-4.475745386697772e-16,0.0,4.531819456454457e+25
138,0.4779999852180481,68.1300048828125,0.04806887358427048,0.16615308821201324,0.09619613736867905,-0.0761968195438385,0.1556696742773056,0.09555914252996445,-0.009982992894947529,0.009029696695506573,-0.7440263032913208,0.0,0.0,0.0,0.0,0.0,0.0,0.0,0.0,0.0,0.9315809011459351,0.002391589805483818,-0.006291094236075878,-0.3634609580039978,0.0,25060.75,0.0,1002.4299926757812,11.4375,4.563852074035424e-11,nan,8.572894444531533e+23,0.0,1.1301203836749174e-34
138,0.4779999852180481,68.24380493164062,0.048274099826812744,0.03180278465151787,-0.018957175314426422,0.013785678893327713,0.055943310260772705,-0.01953001692891121,-0.008123980835080147,0.008217527531087399,-0.7447158098220825,0.0,0.0,0.0,0.0,0.0,0.0,0.0,0.0,0.0,0.9314588904380798,0.002349347807466984,-0.005278401542454958,-0.3637896776199341,0.0,25060.5,0.0,1002.4199829101562,11.4375,6.542456454252315e-20,6.319096027754496e-35,-1.9694252699706225e+24,0.0,-1.9563277756395197e+37
138,0.4779999852180481,68.34420013427734,-0.05528363958001137,0.007087668403983116,-0.013024368323385715,-0.045559272170066833,-0.03232434019446373,-0.012473472394049168,-0.006120158359408379,0.008434728719294071,-0.7438462376594543,0.0,0.0,0.0,0.0,0.0,0.0,0.0,0.0,0.0,0.9316185116767883,0.002816929016262293,-0.004383448977023363,-0.36338934302330017,0.0,25060.5,0.0,1002.4199829101562,11.4375,-0.4926444888114929,6.179893262449391e-38,-1.3490651738085058e-12,0.0,3.1221854916389622e-25
138,0.4779999852180481,68.44459533691406,-0.03380384296178818,-0.06485432386398315,-0.013006248511373997,0.01886044070124626,-0.07075344026088715,-0.012493649497628212,-0.005405855365097523,0.008693886920809746,-0.7423174977302551,0.0,0.0,0.0,0.0,0.0,0.0,0.0,0.0,0.0,0.9318959712982178,0.003070572391152382,-0.004095462150871754,-0.3626783788204193,0.0,25060.5,0.0,1002.4199829101562,11.4375,-7.188368735817304e+25,-8.109383489105384e+37,-4.475745386697772e-16,0.0,4.531819456454457e+25
138,0.4779999852180481,68.54497528076172,-0.021583661437034607,0.017509734258055687,-0.034131087362766266,-0.028012307360768318,-0.0019849457312375307,-0.033892713487148285,-0.007994035258889198,0.008268741890788078,-0.7429352402687073,0.0,0.0,0.0,0.0,0.0,0.0,0.0,0.0,0.0,0.9317824840545654,0.002401491394266486,-0.005225062370300293,-0.36296048760414124,0.0,25060.5,0.0,1002.4199829101562,11.4375,4.563852074035424e-11,nan,8.572894444531533e+23,0.0,1.1301203836749174e-34
138,0.4779999852180481,68.65878295898438,0.0019311679061502218,-0.03708384558558464,-0.04852203279733658,0.0262162983417511,-0.02630757726728916,-0.04851685091853142,-0.006120970938354731,0.0063535673543810844,-0.7431763410568237,0.0,0.0,0.0,0.0,0.0,0.0,0.0,0.0,0.0,0.9317425489425659,0.0018486970802769065,-0.004005070310086012,-0.36308160424232483,0.0,25060.375,0.0,1002.4149780273438,11.4375,6.542456454252315e-20,6.319096027754496e-35,-1.9694252699706225e+24,0.0,-1.9563277756395197e+37
138,0.4779999852180481,68.75917053222656,0.15241019427776337,0.19498957693576813,-0.03289226442575455,-0.02057230845093727,0.2464601844549179,-0.034129999577999115,-0.007234055083245039,0.00562132615596056,-0.7456994652748108,0.0,0.0,0.0,0.0,0.0,0.0,0.0,0.0,0.0,0.9312832355499268,0.0012999448226764798,-0.004392336122691631,-0.3642560839653015,0.0,25060.375,0.0,1002.4149780273438,11.4375,-0.4926444888114929,6.179893262449391e-38,-1.3490651738085058e-12,0.0,3.1221854916389622e-25
138,0.4779999852180481,68.85955810546875,-0.010001599788665771,-0.036479827016592026,-0.0558185949921608,0.017053550109267235,-0.034002114087343216,-0.055673014372587204,-0.005590424872934818,0.007139542140066624,-0.7445765137672424,0.0,0.0,0.0,0.0,0.0,0.0,0.0,0.0,0.0,0.9314877390861511,0.0023084506392478943,-0.003902207361534238,-0.3637333810329437,0.0,25060.375,0.0,1002.4149780273438,11.4375,-7.188368735817304e+25,-8.109383489105384e+37,-4.475745386697772e-16,0.0,4.531819456454457e+25
138,0.4779999852180481,68.95995330810547,0.0442039854824543,0.007589643355458975,-0.06238178163766861,0.027025358751416206,0.03504078462719917,-0.06280730664730072,-0.00603832583874464,0.0074195158667862415,-0.7434656023979187,0.0,0.0,0.0,0.0,0.0,0.0,0.0,0.0,0.0,0.9316889047622681,0.002359693869948387,-0.004160422366112471,-0.363214373588562,0.0,25060.375,0.0,1002.4149780273438,11.4375,4.563852074035424e-11,nan,8.572894444531533e+23,0.0,1.1301203836749174e-34
138,0.4779999852180481,69.0737533569336,0.16315022110939026,0.029561327770352364,-0.062110938131809235,0.09987560659646988,0.13189207017421722,-0.06307516247034073,-0.0022631660103797913,0.005592028610408306,-0.7440231442451477,0.0,0.0,0.0,0.0,0.0,0.0,0.0,0.0,0.0,0.9315912127494812,0.002193426713347435,-0.002070497954264283,-0.36348405480384827,0.0,25060.125,0.0,1002.405029296875,11.4375,6.542456454252315e-20,6.319096027754496e-35,-1.9694252699706225e+24,0.0,-1.9563277756395197e+37
138,0.4779999852180481,69.17414093017578,0.009720389731228352,0.00910236593335867,0.016029320657253265,0.001065612304955721,0.013373891822993755,0.01594599522650242,-0.0035573267377913,0.005966376978904009,-0.742408812046051,0.0,0.0,0.0,0.0,0.0,0.0,0.0,0.0,0.0,0.9318837523460388,0.002134799025952816,-0.002739627379924059,-0.3627294898033142,0.0,25060.125,0.0,1002.405029296875,11.4375,-0.4926444888114929,6.179893262449391e-38,-1.3490651738085058e-12,0.0,3.1221854916389622e-25
138,0.4779999852180481,69.27452850341797,0.11119942367076874,0.03449618071317673,-0.011941947974264622,0.05840114504098892,0.1006200835108757,-0.012751308269798756,-0.005033133085817099,0.005120184738188982,-0.743922233581543,0.0,0.0,0.0,0.0,0.0,0.0,0.0,0.0,0.0,0.931609034538269,0.0014703760389238596,-0.0032749141100794077,-0.3634333610534668,0.0,25060.125,0.0,1002.405029296875,11.4375,-7.188368735817304e+25,-8.109383489105384e+37,-4.475745386697772e-16,0.0,4.531819456454457e+25
138,0.4779999852180481,69.37492370605469,0.06704840064048767,0.07098923623561859,-0.04029277712106705,0.0011058201780542731,0.0972946435213089,-0.041119515895843506,-0.007219436578452587,0.008393042720854282,-0.7425523400306702,0.0,0.0,0.0,0.0,0.0,0.0,0.0,0.0,0.0,0.9318525195121765,0.0026009243447333574,-0.004886245355010033,-0.3627837598323822,0.0,25060.5,0.0,1002.4199829101562,11.4375,4.563852074035424e-11,nan,8.572894444531533e+23,0.0,1.1301203836749174e-34
138,0.4779999852180481,69.48872375488281,0.0520191416144371,0.11824020743370056,-0.07654765993356705,-0.042867809534072876,0.12171568721532822,-0.07676951587200165,-0.011711331084370613,0.005898656323552132,-0.7454066872596741,0.0,0.0,0.0,0.0,0.0,0.0,0.0,0.0,0.0,0.9313288331031799,0.0006145464139990509,-0.006527548190206289,-0.3641091287136078,0.0,25060.5,0.0,1002.4199829101562,11.4375,6.542456454252315e-20,6.319096027754496e-35,-1.9694252699706225e+24,0.0,-1.9563277756395197e+37
138,0.4779999852180481,69.589111328125,-0.031144442036747932,0.10333358496427536,-0.041447676718235016,-0.09330584853887558,0.05449052155017853,-0.041113320738077164,-0.008064351975917816,0.007632645312696695,-0.7454414963722229,0.0,0.0,0.0,0.0,0.0,0.0,0.0,0.0,0.0,0.9313275814056396,0.0020859315991401672,-0.005145000759512186,-0.36412933468818665,0.0,25060.5,0.0,1002.4199829101562,11.4375,-0.4926444888114929,6.179893262449391e-38,-1.3490651738085058e-12,0.0,3.1221854916389622e-25
138,0.4779999852180481,69.68950653076172,-0.1683969497680664,0.05172707140445709,0.021682702004909515,-0.1586068719625473,-0.07613679021596909,0.023450033739209175,-0.007402175106108189,0.00777735048905015,-0.7460895776748657,0.0,0.0,0.0,0.0,0.0,0.0,0.0,0.0,0.0,0.9312100410461426,0.0022723085712641478,-0.004863732494413853,-0.36443236470222473,0.0,25060.5,0.0,1002.4199829101562,11.4375,-7.188368735817304e+25,-8.109383489105384e+37,-4.475745386697772e-16,0.0,4.531819456454457e+25
138,0.4779999852180481,69.80329895019531,0.09997259825468063,0.0525965578854084,0.010761222802102566,0.0379427894949913,0.10653503239154816,0.009335319511592388,-0.006389640271663666,0.011115515604615211,-0.7445730566978455,0.0,0.0,0.0,0.0,0.0,0.0,0.0,0.0,0.0,0.931481659412384,0.004014878533780575,-0.00499751465395093,-0.3637208044528961,0.0,25060.125,0.0,1002.405029296875,11.4375,4.563852074035424e-11,nan,8.572894444531533e+23,0.0,1.1301203836749174e-34
138,0.4779999852180481,69.90369415283203,-0.00671663973480463,-0.08109936118125916,0.03782077878713608,0.05031083896756172,-0.06381331384181976,0.03806811943650246,-0.008059280924499035,0.010184968821704388,-0.7444126009941101,0.0,0.0,0.0,0.0,0.0,0.0,0.0,0.0,0.0,0.9315112829208374,0.003278261050581932,-0.0056056370958685875,-0.3636432886123657,0.0,25060.125,0.0,1002.405029296875,11.4375,6.542456454252315e-20,6.319096027754496e-35,-1.9694252699706225e+24,0.0,-1.9563277756395197e+37
138,0.4779999852180481,70.00408172607422,0.049412891268730164,0.09189034253358841,-0.1261625736951828,-0.026906440034508705,0.09977959096431732,-0.12697283923625946,-0.008614329621195793,0.010339182801544666,-0.7434621453285217,0.0,0.0,0.0,0.0,0.0,0.0,0.0,0.0,0.0,0.9316831827163696,0.0032519560772925615,-0.0058906469494104385,-0.3631983697414398,0.0,25060.125,0.0,1002.405029296875,11.4375,-0.4926444888114929,6.179893262449391e-38,-1.3490651738085058e-12,0.0,3.1221854916389622e-25
138,0.4779999852180481,70.1044692993164,-0.08432363718748093,-0.10029920190572739,0.02239605039358139,0.005978284403681755,-0.13068334758281708,0.023618418723344803,-0.007454982493072748,0.009682987816631794,-0.7434476017951965,0.0,0.0,0.0,0.0,0.0,0.0,0.0,0.0,0.0,0.9316880702972412,0.0031568724662065506,-0.0052313897758722305,-0.36319699883461,0.0,25060.125,0.0,1002.405029296875,11.4375,-7.188368735817304e+25,-8.109383489105384e+37,-4.475745386697772e-16,0.0,4.531819456454457e+25
138,0.4779999852180481,70.21826934814453,0.15166999399662018,0.07232707738876343,-0.06768134981393814,0.06209366396069527,0.15525579452514648,-0.0696796104311943,-0.007588944863528013,0.009805065579712391,-0.744009256362915,0.0,0.0,0.0,0.0,0.0,0.0,0.0,0.0,0.0,0.9315856695175171,0.0031879183370620012,-0.0053168595768511295,-0.36345788836479187,0.0,25061.0625,0.0,1002.4425048828125,11.4375,4.563852074035424e-11,nan,8.572894444531533e+23,0.0,1.1301203836749174e-34
138,0.4779999852180481,70.31866455078125,-0.017618225887417793,-0.04574473202228546,-0.04091934114694595,0.017564969137310982,-0.04592457413673401,-0.040739595890045166,-0.011404268443584442,0.008357840590178967,-0.7443469762802124,0.0,0.0,0.0,0.0,0.0,0.0,0.0,0.0,0.0,0.9315208196640015,0.0018192291026934981,-0.006831299513578415,-0.3636082410812378,0.0,25061.0625,0.0,1002.4425048828125,11.4375,6.542456454252315e-20,6.319096027754496e-35,-1.9694252699706225e+24,0.0,-1.9563277756395197e+37
138,0.4779999852180481,70.41905975341797,-0.013339504599571228,0.06140174716711044,-0.048375166952610016,-0.05199086293578148,0.03566088527441025,-0.048098064959049225,-0.010443432256579399,0.007356441579759121,-0.7465125322341919,0.0,0.0,0.0,0.0,0.0,0.0,0.0,0.0,0.0,0.9311291575431824,0.0015208065742626786,-0.006203372962772846,-0.3646226227283478,0.0,25061.0625,0.0,1002.4425048828125,11.4375,-0.4926444888114929,6.179893262449391e-38,-1.3490651738085058e-12,0.0,3.1221854916389622e-25
138,0.4779999852180481,70.51943969726562,0.1088489219546318,0.08866463601589203,0.010641059838235378,0.01988767832517624,0.1390712559223175,0.009277785196900368,-0.008967184461653233,0.008525293320417404,-0.7457783818244934,0.0,0.0,0.0,0.0,0.0,0.0,0.0,0.0,0.0,0.9312639832496643,0.0023362506181001663,-0.005728327203541994,-0.3642813265323639,0.0,25061.0625,0.0,1002.4425048828125,11.4375,-7.188368735817304e+25,-8.109383489105384e+37,-4.475745386697772e-16,0.0,4.531819456454457e+25
138,0.4779999852180481,70.63323974609375,0.01605018973350525,-0.017829356715083122,-0.019355811178684235,0.02372159995138645,-0.00234499154612422,-0.019542602822184563,-0.008575559593737125,0.007572271395474672,-0.7461556792259216,0.0,0.0,0.0,0.0,0.0,0.0,0.0,0.0,0.0,0.9311968684196472,0.001962818205356598,-0.005372759886085987,-0.3644607365131378,0.0,25060.5625,0.0,1002.4224853515625,11.4375,4.563852074035424e-11,nan,8.572894444531533e+23,0.0,1.1301203836749174e-34
138,0.4779999852180481,70.73363494873047,0.20955711603164673,0.09356943517923355,0.09084030240774155,0.09087681770324707,0.21183866262435913,0.08823943883180618,-0.009048335254192352,0.008424797095358372,-0.7475888729095459,0.0,0.0,0.0,0.0,0.0,0.0,0.0,0.0,0.0,0.930933952331543,0.002269470365718007,-0.005749864969402552,-0.36512431502342224,0.0,25060.5625,0.0,1002.4224853515625,11.4375,6.542456454252315e-20,6.319096027754496e-35,-1.9694252699706225e+24,0.0,-1.9563277756395197e+37
138,0.4779999852180481,70.83402252197266,0.10995674878358841,0.0037066808436065912,-0.03258422762155533,0.07814165204763412,0.07689785212278366,-0.03385775536298752,-0.006682927720248699,0.009743310511112213,-0.7443923950195312,0.0,0.0,0.0,0.0,0.0,0.0,0.0,0.0,0.0,0.9315168261528015,0.003322883974760771,-0.004884259309619665,-0.36363914608955383,0.0,25060.5625,0.0,1002.4224853515625,11.4375,-0.4926444888114929,6.179893262449391e-38,-1.3490651738085058e-12,0.0,3.1221854916389622e-25
138,0.4779999852180481,70.94781494140625,0.014070841483771801,0.00011484880087664351,-0.041084326803684235,0.010012480430305004,0.009293689392507076,-0.041222210973501205,-0.006309647113084793,0.007849793881177902,-0.7443188428878784,0.0,0.0,0.0,0.0,0.0,0.0,0.0,0.0,0.0,0.9315332174301147,0.002508997218683362,-0.004366027656942606,-0.36361026763916016,0.0,25060.875,0.0,1002.4349975585938,11.4375,-7.188368735817304e+25,-8.109383489105384e+37,-4.475745386697772e-16,0.0,4.531819456454457e+25
138,0.4779999852180481,71.04821014404297,0.027103519067168236,-0.007983338087797165,-0.08386138826608658,0.024759771302342415,0.01172009576112032,-0.0841459184885025,-0.007003000937402248,0.009068534709513187,-0.744045615196228,0.0,0.0,0.0,0.0,0.0,0.0,0.0,0.0,0.0,0.9315807223320007,0.002951251342892647,-0.004910136107355356,-0.3634784519672394,0.0,25060.875,0.0,1002.4349975585938,11.4375,4.563852074035424e-11,nan,8.572894444531533e+23,0.0,1.1301203836749174e-34
138,0.4779999852180481,71.14860534667969,0.005362523254007101,0.01063726656138897,0.0377788171172142,-0.00301922345533967,0.011746687814593315,0.037709690630435944,-0.0061743007972836494,0.007599209435284138,-0.7434924840927124,0.0,0.0,0.0,0.0,0.0,0.0,0.0,0.0,0.0,0.9316837191581726,0.002418650547042489,-0.004256431479007006,-0.36322617530822754,0.0,25060.875,0.0,1002.4349975585938,11.4375,6.542456454252315e-20,6.319096027754496e-35,-1.9694252699706225e+24,0.0,-1.9563277756395197e+37
138,0.4779999852180481,71.24899291992188,0.10725943744182587,0.0912969559431076,0.010529479943215847,0.01725441962480545,0.13988946378231049,0.009137785993516445,-0.006303155329078436,0.009174834936857224,-0.7432821989059448,0.0,0.0,0.0,0.0,0.0,0.0,0.0,0.0,0.0,0.9317197799682617,0.0031297230161726475,-0.0046022804453969,-0.36312445998191833,0.0,25060.875,0.0,1002.4349975585938,11.4375,-0.4926444888114929,6.179893262449391e-38,-1.3490651738085058e-12,0.0,3.1221854916389622e-25
138,0.4779999852180481,71.36279296875,0.14780865609645844,0.06486830860376358,-0.08955863863229752,0.06418325752019882,0.1470138132572174,-0.09133969247341156,-0.006642242427915335,0.009180364198982716,-0.7442790269851685,0.0,0.0,0.0,0.0,0.0,0.0,0.0,0.0,0.0,0.9315383434295654,0.003068354446440935,-0.004762780852615833,-0.3635878264904022,0.0,25061.5625,0.0,1002.4625244140625,11.4375,-7.188368735817304e+25,-8.109383489105384e+37,-4.475745386697772e-16,0.0,4.531819456454457e+25
138,0.4779999852180481,71.46317291259766,0.08677610754966736,-0.15828771889209747,-0.08155921846628189,0.17002375423908234,-0.05779688432812691,-0.08359306305646896,-0.014162400737404823,0.006637668702751398,-0.7466500997543335,0.0,0.0,0.0,0.0,0.0,0.0,0.0,0.0,0.0,0.931096076965332,0.0005075527587905526,-0.007803767919540405,-0.36467888951301575,0.0,25061.5625,0.0,1002.4625244140625,11.4375,4.563852074035424e-11,nan,8.572894444531533e+23,0.0,1.1301203836749174e-34
138,0.4779999852180481,71.5635986328125,1.427685022354126,0.6987102031707764,-0.857852041721344,0.5528596043586731,1.477668046951294,-0.8793062567710876,-0.02051900327205658,0.006710071582347155,-0.7484957575798035,0.0,0.0,0.0,0.0,0.0,0.0,0.0,0.0,0.0,0.930737316608429,-0.0006278947694227099,-0.010775623843073845,-0.3655177056789398,0.0,25061.5625,0.0,1002.4625244140625,11.4375,6.542456454252315e-20,6.319096027754496e-35,-1.9694252699706225e+24,0.0,-1.9563277756395197e+37
138,0.4779999852180481,0.09062957763671875,-1.3598952293395996,0.03754696249961853,34.38516616821289,-0.8684196472167969,-1.0145701169967651,34.385868072509766,-0.0051162210293114185,-0.0041520437225699425,-0.7231854796409607,-0.07538726180791855,0.0012715791817754507,0.6564369201660156,-0.05399976670742035,-0.051662083715200424,0.6565076112747192,-0.0014579490525647998,-0.0002221818722318858,0.00888501200824976,0.9353238344192505,-0.002846728777512908,-0.0016582742100581527,-0.3537660539150238,-4.766426086425781,25061.5625,0.008662212640047073,1002.4625244140625,11.4375,-0.4926444888114929,6.179893262449391e-38,-1.3490651738085058e-12,0.0,3.122185738157995e-25
138,0.4779999852180481,0.20473480224609375,-3.7871253490448,-2.9382283687591553,50.99799346923828,-1.3394871950149536,-4.692645072937012,50.98932647705078,0.00615848321467638,-0.00020359903282951564,-0.6953567266464233,-0.13666893541812897,0.0673380047082901,2.1169121265411377,-0.16111141443252563,-0.0362849235534668,2.1159348487854004,-0.004792093764990568,0.0016734667588025331,0.05746728926897049,0.940157949924469,0.0009534420096315444,0.002929690992459655,-0.34071266651153564,-4.295529365539551,25061.5625,0.054790694266557693,1002.4625244140625,11.4375,-7.188368735817304e+25,-8.109383489105384e+37,-4.475745386697772e-16,0.0,4.531819917623059e+25
138,0.4779999852180481,0.30544281005859375,-3.44704532623291,-1.4766850471496582,52.101505279541016,-1.8404324054718018,-3.3640058040618896,52.09490203857422,0.007782019209116697,0.0019303503213450313,-0.7733680009841919,-0.10952893644571304,0.11478274315595627,3.737316131591797,-0.18763354420661926,0.012834413908421993,3.7359189987182617,-0.008319375105202198,0.00518115283921361,0.14992232620716095,0.9261518120765686,0.002361277351155877,0.0032397385220974684,-0.37711817026138306,-3.4743473529815674,25061.5625,0.14017152786254883,1002.4625244140625,11.4375,4.563852074035424e-11,nan,8.572894444531533e+23,0.0,1.1301204984692876e-34
138,0.4779999852180481,0.4062042236328125,-0.04356497898697853,-3.946451187133789,65.75888061523438,1.9109140634536743,-3.860851526260376,65.73565673828125,0.013349074870347977,-0.01624579355120659,-0.7958089113235474,-0.11089692264795303,0.06583217531442642,5.556977272033691,-0.19879400730133057,-0.12339790165424347,5.553500652313232,-0.01195455901324749,0.008446145802736282,0.2936530113220215,0.9218412637710571,-0.004901810549199581,0.00930026825517416,-0.3874143660068512,-1.6804955005645752,25061.5625,0.2690601944923401,1002.4625244140625,11.4375,6.542456454252315e-20,6.319096027754496e-35,-1.9694252699706225e+24,0.0,-1.9563279024045797e+37
138,0.4779999852180481,0.5060577392578125,10.536338806152344,10.195890426635742,74.3830337524414,1.0146185159683228,3.074488878250122,75.74447631835938,-0.02981436625123024,-0.1534029245376587,-0.8839790225028992,0.05359440669417381,0.17739424109458923,7.641075134277344,0.12463665753602982,-1.0153964757919312,7.5744829177856445,-0.013204044662415981,0.011253892444074154,0.49166572093963623,0.900652289390564,-0.07561211287975311,0.019337652251124382,-0.4274642765522003,1.600249171257019,25053.6875,0.36242812871932983,1002.1475219726562,11.4375,-0.4926444888114929,6.179893262449391e-38,-1.3490651738085058e-12,0.0,3.122185738157995e-25
138,0.4779999852180481,0.6213226318359375,5.509855270385742,28.82562828063965,71.48709869384766,-3.2720651626586914,7.890252590179443,76.80244445800781,-0.14334186911582947,-0.24100477993488312,-0.6716296672821045,0.3820286989212036,0.8954835534095764,10.129230499267578,1.1914552450180054,-1.490039587020874,9.995378494262695,-0.004211290739476681,0.029575660824775696,0.8056628704071045,0.9320484399795532,-0.13663147389888763,-0.027607353404164314,-0.3344350755214691,4.021389961242676,25053.6875,0.026779191568493843,1002.1475219726562,11.4375,-7.188368735817304e+25,-8.109383489105384e+37,-4.475745386697772e-16,0.0,4.531819917623059e+25
138,0.4779999852180481,0.7222518920898438,-14.261250495910645,20.360200881958008,77.6948471069336,-7.762985706329346,-1.038968801498413,81.19700622558594,-0.14750701189041138,-0.2054930329322815,-0.28386539220809937,0.1335337609052658,1.7001503705978394,12.39574146270752,1.4776482582092285,-0.8779261112213135,12.393784523010254,0.0044354950077831745,0.07155708223581314,1.152170181274414,0.9809733629226685,-0.11162655800580978,-0.05809219554066658,-0.14780926704406738,7.842100620269775,25053.6875,-0.17672166228294373,1002.1475219726562,11.4375,4.563852074035424e-11,nan,8.572894444531533e+23,0.0,1.1301204984692876e-34
138,0.4779999852180481,0.8232269287109375,-4.382068157196045,23.42159080505371,78.16777038574219,-2.3260858058929443,3.9740123748779297,81.58834075927734,0.019767777994275093,-0.2471734881401062,0.15216848254203796,-0.21696901321411133,2.2929415702819824,14.7782564163208,-0.15903477370738983,-1.3861849308013916,14.891304969787598,0.0015148145612329245,0.13312117755413055,1.5698719024658203,0.9893568158149719,-0.12365476787090302,0.00041046764818020165,0.0766419842839241,12.188455581665039,25053.6875,-0.297976553440094,1002.1475219726562,11.4375,6.542456454252315e-20,6.319096027754496e-35,-1.9694252699706225e+24,0.0,-1.9563279024045797e+37
138,0.4779999852180481,0.9233245849609375,0.08213602006435394,23.37432861328125,74.33740234375,2.255711317062378,2.144415855407715,77.86286163330078,0.15328675508499146,-0.21741555631160736,0.6263103485107422,-0.1581450253725052,3.0713329315185547,17.027236938476562,-0.9472995400428772,-1.1645715236663818,17.237348556518555,-0.004026713315397501,0.21383829414844513,2.0433709621429443,0.9404109120368958,-0.12636254727840424,0.039090339094400406,0.31324630975723267,15.022948265075684,25020.5625,-1.3414084911346436,1000.822509765625,11.4375,-0.4926444888114929,6.179893262449391e-38,-1.3490651738085058e-12,0.0,3.122185738157995e-25
138,0.4779999852180481,1.0243911743164062,-10.974843978881836,19.582563400268555,76.474365234375,-1.8304460048675537,4.9899115562438965,79.52291870117188,0.21052610874176025,-0.15442116558551788,1.2113354206085205,-0.4406837821006775,3.6573891639709473,19.33173370361328,-0.8434204459190369,-1.333918571472168,19.61604881286621,-0.013016579672694206,0.3175409138202667,2.6003689765930176,0.8105184435844421,-0.12270107865333557,0.04245247319340706,0.571133553981781,18.395401000976562,25020.5625,-3.500051736831665,1000.822509765625,11.4375,-7.188368735817304e+25,-8.109383489105384e+37,-4.475745386697772e-16,0.0,4.531819917623059e+25
138,0.4779999852180481,1.125518798828125,-8.34699821472168,15.922616004943848,41.618080139160156,6.144145488739014,3.269256591796875,44.7972412109375,0.2670745551586151,0.010313404724001884,1.8968497514724731,-0.6514865756034851,4.313407897949219,21.275310516357422,-1.4722610712051392,-0.5410791039466858,21.66103172302246,-0.030194364488124847,0.44033491611480713,3.223871946334839,0.578321099281311,-0.10519629716873169,0.08176799863576889,0.804850161075592,19.967975616455078,25020.5625,-5.44821310043335,1000.822509765625,11.4375,4.563852074035424e-11,nan,8.572894444531533e+23,0.0,1.130120728058028e-34
138,0.4779999852180481,1.2266311645507812,0.07470680773258209,-3.551543712615967,-15.563287734985352,1.1077684164047241,0.7850268483161926,-15.905569076538086,0.19056043028831482,0.14133790135383606,2.6069207191467285,-0.7153749465942383,4.345962047576904,21.291292190551758,-1.2539631128311157,-0.3207637071609497,21.70333480834961,-0.051339782774448395,0.5732458829879761,3.8745453357696533,0.2687862813472748,-0.07296016812324524,0.09286157786846161,0.9559282660484314,13.23873233795166,25020.5625,-7.238273620605469,1000.822509765625,11.4375,6.542456454252315e-20,6.319096027754496e-35,-1.9694252699706225e+24,0.0,-1.9563281559346998e+37
138,0.4779999852180481,1.3267593383789062,0.9824217557907104,-1.608188271522522,-17.03293228149414,0.01685742288827896,-2.162379503250122,-16.999732971191406,0.04352989047765732,0.22820070385932922,-2.9881279468536377,-0.7108297348022461,4.287456512451172,20.83078956604004,-0.8594386577606201,0.47538119554519653,21.256454467773438,-0.07258109003305435,0.7000074982643127,4.49354887008667,-0.07366973161697388,-0.030283713713288307,0.11183308064937592,0.9905253052711487,8.03060531616211,24950.4375,-11.700404167175293,998.0175170898438,11.4375,-0.4926444888114929,6.179893262449391e-38,-1.3490651738085058e-12,0.0,3.122186231196061e-25
138,0.4779999852180481,1.427825927734375,2.366947650909424,-5.119844913482666,-15.112480163574219,0.12556403875350952,2.3260374069213867,-15.961570739746094,-0.12239443510770798,0.18873898684978485,-2.34883451461792,-0.716648280620575,4.16876220703125,20.35150909423828,0.03679640591144562,0.4708641767501831,20.780900955200195,-0.09461653977632523,0.8283451795578003,5.117765426635742,-0.3889578878879547,0.019854340702295303,0.11026767641305923,0.9144124984741211,-0.07422168552875519,24950.4375,-17.855113983154297,998.0175170898438,11.4375,-7.188368735817304e+25,-8.109383489105384e+37,-4.475745386697772e-16,0.0,4.531820839960262e+25
138,0.4779999852180481,1.5288925170898438,0.660293698310852,-2.1379783153533936,-15.824406623840332,-2.0186214447021484,-0.42513367533683777,-15.847996711730957,-0.2574191093444824,0.07910779863595963,-1.6505836248397827,-0.665415346622467,4.0998663902282715,19.863901138305664,1.1562213897705078,0.6122050285339355,20.251117706298828,-0.11515261977910995,0.9533218145370483,5.727435111999512,-0.6759318113327026,0.06763245165348053,0.11581461876630783,0.7246521711349487,-6.377668857574463,24950.4375,-23.60569190979004,998.0175170898438,11.4375,4.563852074035424e-11,nan,8.572894444531533e+23,0.0,1.130120728058028e-34
138,0.4779999852180481,1.6299591064453125,2.085263967514038,-3.3029308319091797,-15.248941421508789,-0.18942447006702423,1.5215697288513184,-15.666297912597656,-0.26210686564445496,-0.11562548577785492,-0.9318057894706726,-0.6029713153839111,4.014651775360107,19.39462661743164,1.5656754970550537,-0.37066006660461426,19.74936866760254,-0.13447482883930206,1.0765775442123413,6.322551250457764,-0.8808795809745789,0.10978607088327408,0.09082178771495819,0.45137742161750793,-12.840624809265137,24950.4375,-28.979578018188477,998.0175170898438,11.4375,6.542456454252315e-20,6.319096027754496e-35,-1.9694252699706225e+24,0.0,-1.9563281559346998e+37
138,0.4779999852180481,1.7300872802734375,0.5973600149154663,-1.1178990602493286,-15.385858535766602,-1.8849908113479614,3.224860906600952,-14.979131698608398,-0.1803198903799057,-0.27106335759162903,-0.2863531708717346,-0.5504058003425598,3.9962174892425537,18.93717384338379,1.7664011716842651,-1.5241466760635376,19.220821380615234,-0.15119342505931854,1.1943058967590332,6.885697364807129,-0.9749680161476135,0.14592039585113525,0.06909848749637604,0.1528458148241043,-21.342885971069336,24871.375,-37.893775939941406,994.85498046875,11.4375,-0.4926444888114929,6.179893262449391e-38,-1.3490651738085058e-12,0.0,3.122186231196061e-25
138,0.4779999852180481,1.8311538696289062,1.6672810316085815,1.2622092962265015,-15.160552978515625,2.0717992782592773,5.8970746994018555,-13.969380378723145,0.0070521836169064045,-0.3522427976131439,0.2987789809703827,-0.5229882597923279,3.9825327396392822,18.475326538085938,0.5421416163444519,-2.6586170196533203,18.711055755615234,-0.1675979346036911,1.3152159452438354,7.4528350830078125,-0.9734629988670349,0.17377568781375885,0.022644465789198875,-0.1471414864063263,-31.744598388671875,24871.375,-47.694976806640625,994.85498046875,11.4375,-7.188368735817304e+25,-8.109383489105384e+37,-4.475745386697772e-16,0.0,4.531820839960262e+25
138,0.4779999852180481,1.9322052001953125,-1.7121034860610962,-2.997558355331421,-13.99441909790039,-0.8652697205543518,3.8330745697021484,-13.86780071258545,0.17873066663742065,-0.30809304118156433,0.8910436034202576,-0.5166568756103516,3.964686155319214,18.014379501342773,-0.48789775371551514,-2.7666420936584473,18.237478256225586,-0.1830829232931137,1.4363421201705933,8.006316184997559,-0.8822371363639832,0.1759108006954193,-0.013724650256335735,-0.4364820420742035,-40.66584014892578,24871.375,-56.84345245361328,994.85498046875,11.4375,4.563852074035424e-11,nan,8.572894444531533e+23,0.0,1.130120728058028e-34
138,0.4779999852180481,2.033233642578125,1.6902438402175903,-0.9593830108642578,-14.578819274902344,4.207999229431152,0.6318221688270569,-14.078680038452148,0.3457532227039337,-0.17153406143188477,1.4669173955917358,-0.5162673592567444,3.9214766025543213,17.56842041015625,-2.334914445877075,-2.1372644901275635,17.72762680053711,-0.19911743700504303,1.5560322999954224,8.546355247497559,-0.7192327380180359,0.17741894721984863,-0.07082511484622955,-0.6679837107658386,-49.77427291870117,24871.375,-65.38334655761719,994.85498046875,11.4375,6.542456454252315e-20,6.319096027754496e-35,-1.9694252699706225e+24,0.0,-1.9563281559346998e+37
138,0.4779999852180481,2.1333236694335938,-1.0105072259902954,-0.2788856029510498,-15.14907455444336,6.249197006225586,0.9011747241020203,-13.81031608581543,0.4115431010723114,0.009167976677417755,2.0383071899414062,-0.514003574848175,3.8956236839294434,17.139562606811523,-3.456737756729126,-1.1390966176986694,17.203277587890625,-0.21384240686893463,1.6709909439086914,9.057112693786621,-0.513820469379425,0.17166155576705933,-0.11090375483036041,-0.8331941962242126,-61.58073043823242,24801.4375,-77.46363067626953,992.0574951171875,11.4375,-0.4926444888114929,6.179893262449391e-38,-1.3490651738085058e-12,0.0,3.122186231196061e-25
138,0.4779999852180481,2.234344482421875,3.3564212322235107,-2.465442180633545,-12.96726131439209,-0.15789932012557983,-2.4902195930480957,-13.388972282409668,0.2969052493572235,0.22181160748004913,2.632356882095337,-0.5326254367828369,3.8534953594207764,16.69737434387207,-2.64392352104187,0.6346660256385803,16.92741584777832,-0.23038002848625183,1.78885817527771,9.570389747619629,-0.2634163200855255,0.11469005793333054,-0.142957404255867,-0.9471076130867004,-76.06389617919922,24801.4375,-89.37959289550781,992.0574951171875,11.4375,-7.188368735817304e+25,-8.109383489105384e+37,-4.475745386697772e-16,0.0,4.531820839960262e+25
138,0.4779999852180481,2.3353652954101562,-0.11229565739631653,-2.1549572944641113,-13.5054292678833,2.471226930618286,-2.458204507827759,-13.224982261657715,0.16592930257320404,0.3438511788845062,-3.080385684967041,-0.48237234354019165,3.7697389125823975,16.296552658081055,-2.44425368309021,1.8621097803115845,16.449153900146484,-0.2454184889793396,1.9042924642562866,10.070891380310059,0.015873100608587265,0.08682669699192047,-0.1679125279188156,-0.9818381071090698,-88.39330291748047,24801.4375,-100.4983139038086,992.0574951171875,11.4375,4.563852074035424e-11,nan,8.572894444531533e+23,0.0,1.130120728058028e-34
138,0.4779999852180481,2.4363861083984375,-1.8027799129486084,-2.962308883666992,-13.282469749450684,2.5075149536132812,-3.6374447345733643,-12.997209548950195,-0.04597771167755127,0.3850584030151367,-2.5682921409606934,-0.5412417650222778,3.6877472400665283,15.883405685424805,-0.8138857483863831,2.843017101287842,16.044477462768555,-0.2609652876853943,2.017502546310425,10.559176445007324,0.28166109323501587,0.032444067299366,-0.18986450135707855,-0.9399772882461548,-98.07486724853516,24801.4375,-110.87342834472656,992.0574951171875,11.4375,6.542456454252315e-20,6.319096027754496e-35,-1.9694252699706225e+24,0.0,-1.9563281559346998e+37
138,0.4779999852180481,2.5364303588867188,4.878472328186035,-1.8278276920318604,-13.247854232788086,-3.8584535121917725,1.4275541305541992,-13.627803802490234,-0.24024789035320282,0.2816171944141388,-2.069305181503296,-0.4647892415523529,3.6515471935272217,15.497575759887695,0.7883844375610352,2.3113551139831543,15.740280151367188,-0.2761266231536865,2.1254611015319824,11.02025318145752,0.51658034324646,-0.030827296897768974,-0.18039067089557648,-0.8364478945732117,-113.0453872680664,24738.9375,-124.81535339355469,989.5574951171875,11.4375,-0.4926444888114929,6.179893262449391e-38,-1.3490651738085058e-12,0.0,3.122186231196061e-25
138,0.4779999852180481,2.6374130249023438,-1.3858158588409424,-1.967483401298523,-12.889455795288086,-3.1337227821350098,-3.2768325805664062,-12.303201675415039,-0.3876562714576721,0.14183956384658813,-1.5089861154556274,-0.43017521500587463,3.5483453273773193,15.123153686523438,2.4135048389434814,1.9618407487869263,15.22523021697998,-0.2891751229763031,2.234440565109253,11.484437942504883,0.7225226759910583,-0.08093278110027313,-0.18761661648750305,-0.6604561805725098,-126.2645034790039,24738.9375,-137.8075408935547,989.5574951171875,11.4375,-7.188368735817304e+25,-8.109383489105384e+37,-4.475745386697772e-16,0.0,4.531820839960262e+25
138,0.4779999852180481,2.7383956909179688,2.5666770935058594,-0.07977738231420517,-13.230822563171387,-3.995445966720581,3.6520373821258545,-12.34280776977539,-0.42119166254997253,-0.12790364027023315,-0.9541601538658142,-0.4189399182796478,3.524921417236328,14.712040901184082,3.169525146484375,-0.19239099323749542,14.79723072052002,-0.3023616075515747,2.341550827026367,11.936684608459473,0.8607986569404602,-0.15131157636642456,-0.1566246598958969,-0.45999011397361755,-138.65151977539062,24738.9375,-149.92861938476562,989.5574951171875,11.4375,4.563852074035424e-11,nan,8.572894444531533e+23,0.0,1.130120728058028e-34
138,0.4779999852180481,2.8384475708007812,3.993975877761841,-1.9936975240707397,-11.666646003723145,0.36590608954429626,3.7026219367980957,-11.924406051635742,-0.3354996144771576,-0.3230396807193756,-0.40149986743927,-0.31214427947998047,3.4833271503448486,14.35592269897461,3.1698851585388184,-1.5507041215896606,14.34807014465332,-0.31298914551734924,2.4447333812713623,12.363747596740723,0.9482282996177673,-0.18823619186878204,-0.12986460328102112,-0.22035716474056244,-150.5504913330078,24676.5,-161.87518310546875,987.0599975585938,11.4375,6.542456454252315e-20,6.319096027754496e-35,-1.9694252699706225e+24,0.0,-1.9563281559346998e+37
138,0.4779999852180481,2.9394378662109375,-0.7550118565559387,-0.7265082597732544,-13.04297924041748,-3.0266225337982178,5.346887111663818,-11.552685737609863,-0.17066769301891327,-0.484394907951355,0.09937908500432968,-0.3333710730075836,3.4441099166870117,13.970503807067871,2.3825936317443848,-3.3482272624969482,13.79336929321289,-0.32264068722724915,2.5497891902923584,12.79306697845459,0.9670979380607605,-0.23455804586410522,-0.0945100262761116,0.027627546340227127,-164.859375,24676.5,-176.62490844726562,987.0599975585938,11.4375,-0.4926444888114929,6.179893262449391e-38,-1.3490651738085058e-12,0.0,3.122186231196061e-25
138,0.4779999852180481,3.0404129028320312,1.6070743799209595,-1.3389021158218384,-11.64720630645752,1.8212509155273438,4.045700550079346,-10.970227241516113,0.09378177672624588,-0.5216336846351624,0.5177496075630188,-0.31521010398864746,3.427922010421753,13.590590476989746,0.14372524619102478,-4.090989112854004,13.408735275268555,-0.3327065706253052,2.6542091369628906,13.210758209228516,0.9298605918884277,-0.2605958580970764,-0.022160537540912628,0.2587469816207886,-179.18734741210938,24676.5,-190.38377380371094,987.0599975585938,11.4375,-7.188368735817304e+25,-8.109383489105384e+37,-4.475745386697772e-16,0.0,4.531820839960262e+25
138,0.4779999852180481,3.1413955688476562,0.9460073709487915,-0.26594099402427673,-12.241623878479004,3.983349084854126,4.566406726837158,-10.681818962097168,0.30067116022109985,-0.4822603464126587,0.9055804014205933,-0.2600801885128021,3.3939995765686035,13.22191333770752,-1.51862370967865,-4.164453506469727,12.91331672668457,-0.34121689200401306,2.757728099822998,13.61715030670166,0.8477146029472351,-0.27593880891799927,0.027491172775626183,0.4521872103214264,-192.16249084472656,24676.5,-203.21884155273438,987.0599975585938,11.4375,4.563852074035424e-11,nan,8.572894444531533e+23,0.0,1.130120728058028e-34
138,0.4779999852180481,3.2414474487304688,-1.2110713720321655,-1.4022996425628662,-12.658537864685059,4.303976535797119,4.998523235321045,-10.961730003356934,0.47405096888542175,-0.35901209712028503,1.3219788074493408,-0.26188844442367554,3.376760482788086,12.851531028747559,-3.012190103530884,-3.515810966491699,12.457757949829102,-0.34883859753608704,2.857431650161743,14.000171661376953,0.7292444705963135,-0.2788337469100952,0.07583737373352051,0.6202374696731567,-204.77671813964844,24627.5625,-216.178466796875,985.1024780273438,11.4375,6.542456454252315e-20,6.319096027754496e-35,-1.9694252699706225e+24,0.0,-1.9563281559346998e+37
138,0.4779999852180481,3.342437744140625,0.4744361639022827,-1.8274102210998535,-10.829724311828613,4.341004371643066,0.8408309817314148,-10.064496994018555,0.5785349607467651,-0.08165386319160461,1.8338876962661743,-0.2769119143486023,3.3442282676696777,12.485072135925293,-4.06289005279541,-1.600149393081665,12.168288230895996,-0.3571699857711792,2.959481954574585,14.384062767028809,0.5732479095458984,-0.2500232458114624,0.142308309674263,0.7672126293182373,-220.41522216796875,24627.5625,-230.6072998046875,985.1024780273438,11.4375,-0.4926444888114929,6.179893262449391e-38,-1.3490651738085058e-12,0.0,3.122186231196061e-25
138,0.4779999852180481,3.44342041015625,0.9136460423469543,-0.8295876979827881,-11.818262100219727,5.3770318031311035,-2.2654242515563965,-10.351194381713867,0.5735746622085571,0.21159759163856506,2.3712146282196045,-0.24589446187019348,3.2959632873535156,12.141270637512207,-4.512115001678467,0.2783926725387573,11.742865562438965,-0.3650900721549988,3.0601143836975098,14.757283210754395,0.3860546350479126,-0.22262363135814667,0.19955743849277496,0.8726791143417358,-234.2880859375,24627.5625,-244.06617736816406,985.1024780273438,11.4375,-7.188368735817304e+25,-8.109383489105384e+37,-4.475745386697772e-16,0.0,4.531820839960262e+25
138,0.4779999852180481,3.5443954467773438,-0.9868953227996826,-0.9013633131980896,-12.336727142333984,6.004270076751709,-3.7724249362945557,-10.18313217163086,0.4501837491989136,0.45944714546203613,2.867943286895752,-0.26720094680786133,3.253696918487549,11.77584171295166,-4.100722789764404,2.1779792308807373,11.303376197814941,-0.37281566858291626,3.1594626903533936,15.119682312011719,0.17981266975402832,-0.18502691388130188,0.24953249096870422,0.9333581328392029,-246.9459991455078,24627.5625,-256.62115478515625,985.1024780273438,11.4375,4.563852074035424e-11,nan,8.572894444531533e+23,0.0,1.130120728058028e-34
138,0.4779999852180481,3.6444473266601562,-0.8284958600997925,-1.4954557418823242,-11.215166091918945,3.4625916481018066,-4.6825432777404785,-9.735747337341309,0.2265712320804596,0.5791147351264954,-3.045616626739502,-0.2851628065109253,3.223797082901001,11.43851375579834,-2.5939621925354004,3.388394355773926,11.095110893249512,-0.38098958134651184,3.254676342010498,15.460471153259277,-0.013437644578516483,-0.1218220591545105,0.27817302942276,0.9526751637458801,-260.8454895019531,24583.0625,-269.66571044921875,983.322509765625,11.4375,6.542456454252315e-20,6.319096027754496e-35,-1.9694252699706225e+24,0.0,-1.9563281559346998e+37
138,0.4779999852180481,3.7454147338867188,0.8284638524055481,-0.8559466004371643,-11.213415145874023,-0.5653570890426636,-5.445679187774658,-9.858115196228027,-0.013754919171333313,0.604121744632721,-2.7249221801757812,-0.27139022946357727,3.171684741973877,11.108970642089844,-0.8825624585151672,3.840430736541748,10.863348960876465,-0.3895348310470581,3.3516297340393066,15.80195426940918,-0.19946342706680298,-0.055104147642850876,0.2924056053161621,0.9336317181587219,-275.1495666503906,24583.0625,-283.52484130859375,983.322509765625,11.4375,-0.4926444888114929,6.179893262449391e-38,-1.3490651738085058e-12,0.0,3.122186231196061e-25
138,0.4779999852180481,3.8463516235351562,-0.06268112361431122,-1.499638319015503,-11.19706916809082,-1.7986483573913574,-5.262967109680176,-9.833160400390625,-0.2569308280944824,0.5848159790039062,-2.378095865249634,-0.25515714287757874,3.1270909309387207,10.772899627685547,0.8245792984962463,3.9985854625701904,10.451238632202148,-0.39734193682670593,3.4470880031585693,16.13345718383789,-0.38806018233299255,0.007340476382523775,0.311004638671875,0.8675384521484375,-288.2569580078125,24583.0625,-296.4519348144531,983.322509765625,11.4375,-7.188368735817304e+25,-8.109383489105384e+37,-4.475745386697772e-16,0.0,4.531820839960262e+25
138,0.4779999852180481,3.947296142578125,0.23378394544124603,-1.4885379076004028,-11.061304092407227,-3.989224910736084,-3.7556850910186768,-9.726338386535645,-0.4783019423484802,0.4505116641521454,-2.0177135467529297,-0.25576841831207275,3.084373950958252,10.433842658996582,2.4312703609466553,3.1609199047088623,10.126172065734863,-0.40516170859336853,3.541379451751709,16.454761505126953,-0.5493559241294861,0.07976582646369934,0.3066559135913849,0.7731747627258301,-300.92401123046875,24583.0625,-308.5106506347656,983.322509765625,11.4375,4.563852074035424e-11,nan,8.572894444531533e+23,0.0,1.130120728058028e-34
138,0.4779999852180481,4.0473175048828125,1.1251152753829956,-1.041847825050354,-10.470293045043945,-5.374955654144287,-0.8367968201637268,-9.076677322387695,-0.6311655640602112,0.22026939690113068,-1.6115386486053467,-0.2387816458940506,3.0466325283050537,10.115800857543945,3.5194501876831055,1.8216919898986816,9.795989036560059,-0.4124528169631958,3.631497621536255,16.756471633911133,-0.6789711713790894,0.1501738578081131,0.2890186607837677,0.6579556465148926,-313.78887939453125,24541.0,-321.4263916015625,981.6400146484375,11.4375,6.542456454252315e-20,6.319096027754496e-35,-1.9694252699706225e+24,0.0,-1.9563281559346998e+37
138,0.4779999852180481,4.14825439453125,1.0588390827178955,-1.3724274635314941,-10.683815002441406,-5.492822647094727,1.0320082902908325,-9.268794059753418,-0.6891149282455444,-0.06728141754865646,-1.1504027843475342,-0.20390048623085022,3.0111582279205322,9.791805267333984,4.040283679962158,0.41124385595321655,9.407090187072754,-0.41911637783050537,3.7234737873077393,17.058204650878906,-0.7831341624259949,0.2102138251066208,0.2660449743270874,0.5212703943252563,-327.1575012207031,24541.0,-334.664794921875,981.6400146484375,11.4375,-0.4926444888114929,6.179893262449391e-38,-1.3490651738085058e-12,0.0,3.122186231196061e-25
138,0.4779999852180481,4.24920654296875,0.7723386287689209,-1.5293846130371094,-10.531123161315918,-5.231521129608154,2.571290969848633,-8.936321258544922,-0.6633537411689758,-0.34874022006988525,-0.7221190929412842,-0.17674148082733154,2.9646706581115723,9.474984169006348,4.185850620269775,-1.0103269815444946,8.947182655334473,-0.4248771369457245,3.8141396045684814,17.35004425048828,-0.8511601090431213,0.2667449712753296,0.2420688420534134,0.38179561495780945,-340.1390686035156,24541.0,-347.0133361816406,981.6400146484375,11.4375,-7.188368735817304e+25,-8.109383489105384e+37,-4.475745386697772e-16,0.0,4.531820839960262e+25
138,0.4779999852180481,4.350196838378906,-0.0037055721040815115,-0.644183337688446,-11.336103439331055,-5.647915840148926,5.039852619171143,-8.462916374206543,-0.5405199527740479,-0.5987638235092163,-0.3481254279613495,-0.1785079687833786,2.9432318210601807,9.132721900939941,3.694758415222168,-2.5183653831481934,8.491532325744629,-0.4302219748497009,3.9037516117095947,17.63188934326172,-0.8932792544364929,0.3241088092327118,0.20202961564064026,0.23702557384967804,-350.753662109375,24541.0,-358.5325622558594,981.6400146484375,11.4375,4.563852074035424e-11,nan,8.572894444531533e+23,0.0,1.130120728058028e-34
138,0.4779999852180481,4.450248718261719,0.5679956078529358,-0.7425650954246521,-11.052755355834961,-2.9583866596221924,6.727904796600342,-8.307740211486816,-0.32627347111701965,-0.746480405330658,-0.06742338836193085,-0.16913214325904846,2.9266889095306396,8.804608345031738,2.4753947257995605,-3.60784649848938,8.183496475219727,-0.4354039132595062,3.990058183670044,17.89507484436035,-0.9162652492523193,0.3646843731403351,0.13901987671852112,0.09015627205371857,-363.1417236328125,24504.875,-371.0576171875,980.1950073242188,11.4375,6.542456454252315e-20,6.319096027754496e-35,-1.9694252699706225e+24,0.0,-1.9563281559346998e+37
138,0.4779999852180481,4.551231384277344,0.624739944934845,-1.1287842988967896,-10.348443031311035,-0.462139368057251,6.667243957519531,-8.005448341369629,-0.08543726056814194,-0.811720609664917,0.17188026010990143,-0.14239512383937836,2.900062322616577,8.484097480773926,1.0783919095993042,-4.12714958190918,7.887516021728516,-0.4401061534881592,4.078525066375732,18.156896591186523,-0.9159806370735168,0.3896239101886749,0.0729488804936409,-0.06199076399207115,-376.08453369140625,24504.875,-383.4168701171875,980.1950073242188,11.4375,-0.4926444888114929,6.179893262449391e-38,-1.3490651738085058e-12,0.0,3.122186231196061e-25
138,0.4779999852180481,4.6522216796875,0.3017100393772125,-0.859312891960144,-10.84543228149414,1.5530940294265747,7.407423496246338,-7.821048259735107,0.14818407595157623,-0.8427684903144836,0.3911422789096832,-0.12196600437164307,2.872260570526123,8.165935516357422,-0.23413188755512238,-4.339398384094238,7.487374782562256,-0.44403108954429626,4.166093349456787,18.409046173095703,-0.886784553527832,0.4132508337497711,0.013004436157643795,-0.20654118061065674,-388.1615905761719,24504.875,-394.94573974609375,980.1950073242188,11.4375,-7.188368735817304e+25,-8.109383489105384e+37,-4.475745386697772e-16,0.0,4.531820839960262e+25
138,0.4779999852180481,4.7532501220703125,1.258374571800232,-0.20021799206733704,-10.709087371826172,4.84318208694458,6.420187950134277,-7.1854658126831055,0.3822300136089325,-0.821387767791748,0.6121503114700317,-0.10339384526014328,2.8625404834747314,7.837815284729004,-1.4757635593414307,-4.1135711669921875,7.108841896057129,-0.4474917948246002,4.253223419189453,18.65166473388672,-0.8354597091674805,0.4262343943119049,-0.04795520380139351,-0.34354478120803833,-398.3581848144531,24504.875,-405.7005310058594,980.1950073242188,11.4375,4.563852074035424e-11,nan,8.572894444531533e+23,0.0,1.130120728058028e-34
138,0.4779999852180481,4.853370666503906,0.19447900354862213,-0.017585821449756622,-10.812715530395508,6.152676582336426,5.930095195770264,-6.627932071685791,0.5947175621986389,-0.7476980686187744,0.8560069799423218,-0.09218322485685349,2.8470852375030518,7.522643089294434,-2.483785390853882,-3.6134965419769287,6.743655681610107,-0.4502888023853302,4.337295055389404,18.87735366821289,-0.765369176864624,0.43088585138320923,-0.10322999209165573,-0.4667787551879883,-409.4903564453125,24475.875,-417.4379577636719,979.0349731445312,11.4375,6.542456454252315e-20,6.319096027754496e-35,-1.9694252699706225e+24,0.0,-1.9563281559346998e+37
138,0.4779999852180481,4.9543914794921875,-0.3358094096183777,-0.6563431024551392,-10.593743324279785,7.039400100708008,4.263368129730225,-6.711147785186768,0.7940157055854797,-0.5601280331611633,1.1606882810592651,-0.11635860800743103,2.8262269496917725,7.201888084411621,-3.3518848419189453,-2.6016123294830322,6.470217227935791,-0.4535518288612366,4.423367977142334,19.1001033782959,-0.6825730800628662,0.4169314205646515,-0.1709839403629303,-0.575341522693634,-421.0955810546875,24475.875,-428.65399169921875,979.0349731445312,11.4375,-0.4926444888114929,6.179893262449391e-38,-1.3490651738085058e-12,0.0,3.122186231196061e-25
138,0.4779999852180481,5.0554351806640625,0.47162941098213196,-0.13936550915241241,-10.733419418334961,8.524528503417969,1.1295523643493652,-6.4422607421875,0.9303253889083862,-0.24586091935634613,1.565137267112732,-0.11042600870132446,2.8138034343719482,6.8759918212890625,-3.83225679397583,-1.4264987707138062,6.2037835121154785,-0.45703649520874023,4.50892972946167,19.313173294067383,-0.5901905298233032,0.39161422848701477,-0.23841029405593872,-0.6644287109375,-431.78802490234375,24475.875,-439.1172790527344,979.0349731445312,11.4375,-7.188368735817304e+25,-8.109383489105384e+37,-4.475745386697772e-16,0.0,4.531820839960262e+25
138,0.4779999852180481,5.156455993652344,0.3282327353954315,-0.3866189122200012,-10.68929386138916,8.359969139099121,-0.9822260141372681,-6.607751846313477,0.9427930116653442,0.12994983792304993,2.040520191192627,-0.10543585568666458,2.804297685623169,6.547718048095703,-3.8012633323669434,-0.39969053864479065,6.011453628540039,-0.46036940813064575,4.594168663024902,19.516145706176758,-0.49023035168647766,0.355954110622406,-0.286376416683197,-0.7422605752944946,-442.6909484863281,24475.875,-448.8795471191406,979.0349731445312,11.4375,4.563852074035424e-11,nan,8.572894444531533e+23,0.0,1.130120728058028e-34
138,0.4779999852180481,5.256538391113281,-0.6380656957626343,-1.2607331275939941,-9.419442176818848,6.973381042480469,-1.5186041593551636,-6.307669162750244,0.8632461428642273,0.451235830783844,2.4702625274658203,-0.11175870150327682,2.7793729305267334,6.247213363647461,-3.5670509338378906,0.47677239775657654,5.814903736114502,-0.46350932121276855,4.676409721374512,19.70379066467285,-0.3799681067466736,0.31805965304374695,-0.32616105675697327,-0.805029571056366,-454.0726013183594,24446.0625,-460.01849365234375,977.842529296875,11.4375,6.542456454252315e-20,6.319096027754496e-35,-1.9694252699706225e+24,0.0,-1.9563281559346998e+37
138,0.4779999852180481,5.357521057128906,-0.4442894458770752,-0.6430935859680176,-10.329691886901855,6.868875026702881,-4.51948356628418,-6.301146030426025,0.7060443162918091,0.7191202640533447,2.8210606575012207,-0.13012826442718506,2.747080087661743,5.939401626586914,-3.1010818481445312,1.4690297842025757,5.57354211807251,-0.467244029045105,4.760227680206299,19.888187408447266,-0.2602563202381134,0.26679301261901855,-0.37757572531700134,-0.8476532101631165,-464.9169616699219,24446.0625,-470.4039611816406,977.842529296875,11.4375,-0.4926444888114929,6.179893262449391e-38,-1.3490651738085058e-12,0.0,3.122186231196061e-25
138,0.4779999852180481,5.458503723144531,-0.17221491038799286,-1.2118850946426392,-9.514120101928711,4.659662246704102,-5.652935981750488,-6.192504405975342,0.505250871181488,0.8861973285675049,3.051403522491455,-0.12778155505657196,2.7179112434387207,5.64314079284668,-2.405867576599121,2.2604081630706787,5.324481010437012,-0.4711810052394867,4.843142032623291,20.06339454650879,-0.1464870423078537,0.20686668157577515,-0.42488783597946167,-0.8690279722213745,-474.7635803222656,24446.0625,-480.09271240234375,977.842529296875,11.4375,-7.188368735817304e+25,-8.109383489105384e+37,-4.475745386697772e-16,0.0,4.531820839960262e+25
138,0.4779999852180481,5.558586120605469,-0.4745633900165558,-0.9179251790046692,-9.943951606750488,3.3378219604492188,-7.417895793914795,-5.812228202819824,0.28770244121551514,0.9999041557312012,-3.0707356929779053,-0.14157190918922424,2.685455799102783,5.358305931091309,-1.5673151016235352,2.858617067337036,5.031338691711426,-0.47519779205322266,4.9226484298706055,20.224977493286133,-0.037915024906396866,0.14253608882427216,-0.46967586874961853,-0.8704262375831604,-483.8345642089844,24425.6875,-489.3402099609375,977.0275268554688,11.4375,4.563852074035424e-11,nan,8.572894444531533e+23,0.0,1.130120728058028e-34
138,0.4779999852180481,5.659645080566406,0.4025706350803375,-0.9129060506820679,-9.409629821777344,0.30961039662361145,-7.722073078155518,-5.459741115570068,0.05658525601029396,1.0583809614181519,-2.951587438583374,-0.13386289775371552,2.6749424934387207,5.042016506195068,-0.6582967042922974,3.0686776638031006,4.769115924835205,-0.4793917238712311,5.004021167755127,20.382095336914062,0.06763449311256409,0.07217851281166077,-0.5000385046005249,-0.8603305816650391,-493.7460021972656,24425.6875,-499.14410400390625,977.0275268554688,11.4375,6.542456454252315e-20,6.319096027754496e-35,-1.9694252699706225e+24,0.0,-1.9563281559346998e+37
138,0.4779999852180481,5.760704040527344,-0.2696841359138489,-0.5521511435508728,-9.485602378845215,-1.2329548597335815,-8.054814338684082,-4.894129276275635,-0.17522893846035004,1.0716811418533325,-2.827113151550293,-0.129052072763443,2.659412384033203,4.7402801513671875,0.1372232437133789,2.975761890411377,4.548064231872559,-0.48331835865974426,5.0850324630737305,20.52994728088379,0.17825213074684143,0.005333339795470238,-0.5141106843948364,-0.838975191116333,-503.0077209472656,24425.6875,-508.29083251953125,977.0275268554688,11.4375,-0.4926444888114929,6.179893262449391e-38,-1.3490651738085058e-12,0.0,3.122186231196061e-25
138,0.4779999852180481,5.861724853515625,3.9506187438964844,1.8963340520858765,-13.156203269958496,-7.136112213134766,-10.48705768585205,-5.602085590362549,-0.21961666643619537,1.1011347770690918,-2.637162685394287,0.3934570550918579,2.384371042251587,3.909212827682495,-0.6092296242713928,2.834303140640259,3.5661158561706543,-0.4762232005596161,5.159692764282227,20.6578311920166,0.2669106721878052,0.03933074697852135,-0.5268717408180237,-0.8059834837913513,-512.4864501953125,24425.6875,-516.8355102539062,977.0275268554688,11.4375,-7.188368735817304e+25,-8.109383489105384e+37,-4.475745386697772e-16,0.0,4.531820839960262e+25
138,0.4779999852180481,5.961860656738281,-2.71795916557312,1.8540844917297363,-5.151429176330566,-0.6020877361297607,-5.965562343597412,1.1878827810287476,-0.2792181372642517,1.217560887336731,-2.4309561252593994,0.3474271893501282,2.1205546855926514,3.5320630073547363,-0.6093670725822449,3.1337966918945312,2.626903533935547,-0.46550363302230835,5.224562644958496,20.765893936157227,0.35721954703330994,0.08998387306928635,-0.5706411600112915,-0.7339326739311218,-519.3366088867188,24411.9375,-525.0924072265625,976.4774780273438,11.5,4.563852074035424e-11,nan,8.572894444531533e+23,0.0,1.130120728058028e-34
138,0.4779999852180481,6.0636444091796875,-31.671247482299805,-48.68600082397461,-37.344512939453125,36.946556091308594,-53.092529296875,-24.167346954345703,-0.41273605823516846,1.3622076511383057,-2.3670833110809326,-0.0023495221976190805,1.5665335655212402,2.8927927017211914,0.15831707417964935,2.789476156234741,1.736621618270874,-0.45885083079338074,5.2831196784973145,20.864276885986328,0.4066258668899536,0.08533972501754761,-0.6307682991027832,-0.6553589105606079,-518.5315551757812,24411.9375,-533.4580078125,976.4774780273438,11.5,6.542456454252315e-20,6.319096027754496e-35,-1.9694252699706225e+24,0.0,-1.9563281559346998e+37
138,0.4779999852180481,6.16485595703125,8.366532325744629,8.730572700500488,-2.690889835357666,-7.908675670623779,-3.8041446208953857,8.743090629577637,-0.6393335461616516,0.8921571373939514,3.0844783782958984,0.008280095644295216,1.8325552940368652,2.7410354614257812,1.7127809524536133,0.5187419056892395,2.7692465782165527,-0.46007856726646423,5.335082530975342,20.94918441772461,0.11106852442026138,-0.29507994651794434,-0.40131109952926636,-0.8599612712860107,-539.4415893554688,24411.9375,-541.2681884765625,976.4774780273438,11.5,-0.4926444888114929,6.179893262449391e-38,-1.3490651738085058e-12,0.0,3.122186231196061e-25
138,0.4779999852180481,6.265754699707031,19.89809799194336,-19.38795280456543,-9.267840385437012,-19.451128005981445,1.2263031005859375,21.8599853515625,-1.0735869407653809,0.7793338298797607,1.820451021194458,0.6123956441879272,1.6438082456588745,2.5621156692504883,2.9394471645355225,-0.7426555752754211,0.6704936623573303,-0.4499613642692566,5.3898515701293945,21.029865264892578,-0.33434104919433594,-0.5738393664360046,0.03247064724564552,-0.7469028234481812,-545.4267578125,24411.9375,-548.5518798828125,976.4774780273438,11.5,-7.188368735817304e+25,-8.109383489105384e+37,-4.475745386697772e-16,0.0,4.531820839960262e+25
138,0.4779999852180481,6.36669921875,0.9360983371734619,-20.232545852661133,-12.089073181152344,-3.899749517440796,-9.434610366821289,21.263826370239258,-0.9600441455841064,1.8829699754714966,-0.4969840347766876,0.8021790981292725,1.0462461709976196,2.213373899459839,1.9315458536148071,0.6471964120864868,-1.5771247148513794,-0.4276454746723175,5.4279913902282715,21.099611282348633,-0.5978491306304932,-0.6281885504722595,0.43981850147247314,-0.23347026109695435,-541.3057250976562,24379.6875,-556.3092041015625,975.1875,11.5,4.563852074035424e-11,nan,8.572894444531533e+23,0.0,1.130120728058028e-34
138,0.4779999852180481,6.46783447265625,-16.733680725097656,-13.045083045959473,-16.842180252075195,12.30317497253418,-10.339081764221191,21.807655334472656,-0.18739143013954163,2.0670342445373535,-1.7427574396133423,0.502107560634613,0.4599479138851166,1.809775471687317,-0.1924857646226883,1.4538588523864746,-1.2602145671844482,-0.40713992714881897,5.4489521980285645,21.160301208496094,-0.38954228162765503,-0.5139982104301453,0.6853416562080383,0.3381747901439667,-563.8369140625,24379.6875,-564.7811889648438,975.1875,11.5,6.542456454252315e-20,6.319096027754496e-35,-1.9694252699706225e+24,0.0,-1.9563281559346998e+37
138,0.4779999852180481,6.5685882568359375,-4.0969977378845215,10.441746711730957,-13.765013694763184,6.138484001159668,-7.4071269035339355,14.924461364746094,0.48691779375076294,1.942786455154419,-2.7371914386749268,0.17828494310379028,0.6037827134132385,1.2948814630508423,-0.9606906771659851,1.0673623085021973,0.10409209877252579,-0.39871054887771606,5.463962078094482,21.20591926574707,0.08502918481826782,-0.2941499650478363,0.7576832175254822,0.5763280391693115,-571.7991333007812,24379.6875,-572.692138671875,975.1875,11.5,-0.4926444888114929,6.179893262449391e-38,-1.3490651738085058e-12,0.0,3.122186231196061e-25
138,0.4779999852180481,6.67010498046875,10.562371253967285,5.609323501586914,-13.143989562988281,7.3484721183776855,-12.537899017333984,10.226866722106934,0.7961687445640564,1.455942988395691,2.3060007095336914,0.2903144657611847,0.8701195120811462,0.8901192545890808,-0.3209588825702667,0.8468626141548157,0.9019347429275513,-0.3924940526485443,5.487326622009277,21.238258361816406,0.5149571299552917,-0.015647435560822487,0.6779919266700745,0.5243028402328491,-574.0341796875,24379.6875,-580.078369140625,975.1875,11.5,-7.188368735817304e+25,-8.109383489105384e+37,-4.475745386697772e-16,0.0,4.531820839960262e+25
138,0.4779999852180481,6.770271301269531,13.553842544555664,-8.401046752929688,-2.5802712440490723,3.19852352142334,-9.762928009033203,12.465667724609375,0.5995622873306274,0.9657428860664368,0.8831734657287598,0.6633001565933228,0.801473081111908,0.7669618129730225,0.4260968267917633,1.0014007091522217,0.6972591280937195,-0.3778349757194519,5.512755870819092,21.261878967285156,0.823595404624939,0.2892811596393585,0.4260481894016266,0.23766064643859863,-586.7938232421875,24378.1875,-587.0303955078125,975.1275024414062,11.4375,4.563852074035424e-11,nan,8.572894444531533e+23,0.0,1.130120728058028e-34
138,0.4779999852180481,6.8709869384765625,0.9249040484428406,-13.84138298034668,-5.340758323669434,5.077853202819824,-8.00623607635498,11.448809623718262,0.38752347230911255,1.2282699346542358,-0.17381224036216736,0.8528568148612976,0.406506210565567,0.6503342986106873,0.46686503291130066,1.025112271308899,-0.2161211371421814,-0.3535131812095642,5.53045129776001,21.28347396850586,0.7893177270889282,0.5769909024238586,0.10769321024417877,-0.18014875054359436,-592.979248046875,24378.1875,-593.5548706054688,975.1275024414062,11.4375,6.542456454252315e-20,6.319096027754496e-35,-1.9694252699706225e+24,0.0,-1.9563281559346998e+37
138,0.4779999852180481,6.9723663330078125,-9.311111450195312,-11.534712791442871,-11.17081069946289,8.499239921569824,-3.2492904663085938,16.17816925048828,0.5884405374526978,1.8620394468307495,-0.8666545152664185,0.6924659013748169,-0.01629594713449478,0.4188615083694458,0.15072152018547058,0.4301733374595642,-0.6689121723175049,-0.329476922750473,5.535249710083008,21.299657821655273,0.42086541652679443,0.7694889307022095,-0.16524405777454376,-0.4510497450828552,-598.5619506835938,24378.1875,-599.641357421875,975.1275024414062,11.4375,-0.4926444888114929,6.179893262449391e-38,-1.3490651738085058e-12,0.0,3.122186231196061e-25
138,0.4779999852180481,7.073005676269531,-7.893454074859619,0.9139309525489807,-15.093674659729004,8.073446273803711,-0.20063811540603638,15.024486541748047,0.8379506468772888,2.6878113746643066,-1.0529175996780396,0.41733837127685547,-0.17075656354427338,-0.03120442107319832,0.26065531373023987,-0.14343127608299255,-0.3402729034423828,-0.31331977248191833,5.531004428863525,21.30462646484375,-0.021515389904379845,0.815546989440918,-0.3681233823299408,-0.4459786117076874,-606.334716796875,24378.1875,-605.3250732421875,975.1275024414062,11.4375,-7.188368735817304e+25,-8.109383489105384e+37,-4.475745386697772e-16,0.0,4.531820839960262e+25
138,0.4779999852180481,7.187042236328125,0.10591978579759598,4.655076026916504,-12.403008460998535,8.361368179321289,2.293121337890625,10.017072677612305,0.9975429177284241,-2.651071310043335,-0.9759905934333801,0.325522780418396,-0.02281128615140915,-0.4968797564506531,0.5266244411468506,-0.17926836013793945,0.20951996743679047,-0.30167073011398315,5.527857780456543,21.294404983520508,-0.4059033691883087,0.6979909539222717,-0.5020017027854919,-0.30989837646484375,-612.3849487304688,24379.9375,-611.262451171875,975.197509765625,11.4375,4.563852074035424e-11,nan,8.572894444531533e+23,0.0,1.130120728058028e-34
138,0.4779999852180481,7.28765869140625,3.6336748600006104,3.84671688079834,-9.015387535095215,7.589766025543213,3.5505118370056152,6.250242710113525,1.025896668434143,-1.7986934185028076,-0.8006948232650757,0.3829813301563263,0.11107560992240906,-0.8236995339393616,0.80128413438797,0.18061396479606628,0.40348681807518005,-0.2910389006137848,5.529539585113525,21.273393630981445,-0.6489339470863342,0.5092234015464783,-0.5470272302627563,-0.1425800770521164,-616.3657836914062,24379.9375,-616.0628051757812,975.197509765625,11.4375,6.542456454252315e-20,6.319096027754496e-35,-1.9694252699706225e+24,0.0,-1.9563281559346998e+37
138,0.4779999852180481,7.388267517089844,5.151534080505371,0.6101225018501282,-1.657989501953125,3.299178123474121,0.5250210762023926,4.301019191741943,0.9865474104881287,-0.9738619923591614,-0.7190862894058228,0.5570759773254395,0.14615292847156525,-1.0201072692871094,1.0289844274520874,0.5106743574142456,0.22954997420310974,-0.27663999795913696,5.533988952636719,21.244625091552734,-0.8065940141677856,0.2385377734899521,-0.53672856092453,0.06648317724466324,-621.1995849609375,24379.9375,-620.5443725585938,975.197509765625,11.4375,-0.4926444888114929,6.179893262449391e-38,-1.3490651738085058e-12,0.0,3.122186231196061e-25
138,0.4779999852180481,7.488868713378906,3.72642183303833,-7.445217609405518,-3.7241902351379395,7.256601810455322,-2.9112260341644287,4.695979118347168,1.0557602643966675,-0.24424247443675995,-0.9024251699447632,0.7247676849365234,0.009662379510700703,-1.1082346439361572,1.181959629058838,0.5968181490898132,-0.017785541713237762,-0.25665268301963806,5.536763668060303,21.212413787841797,-0.79837965965271,-0.1233065277338028,-0.4958082139492035,0.31867149472236633,-626.1886596679688,24379.9375,-624.724853515625,975.197509765625,11.4375,-7.188368735817304e+25,-8.109383489105384e+37,-4.475745386697772e-16,0.0,4.531820839960262e+25
138,0.4779999852180481,7.6029052734375,-2.6994881629943848,-6.721487522125244,-5.942508697509766,6.769212245941162,-3.784902334213257,5.256411552429199,1.2636677026748657,0.6832147240638733,-0.9107668399810791,0.6979383826255798,-0.24606050550937653,-1.2938194274902344,1.4213989973068237,0.43816179037094116,-0.09609723836183548,-0.23209241032600403,5.532050132751465,21.171640396118164,-0.5958051085472107,-0.4875313639640808,-0.38090264797210693,0.5120881795883179,-629.6285400390625,24388.6875,-628.48388671875,975.5474853515625,11.4375,4.563852074035424e-11,nan,8.572894444531533e+23,0.0,1.130120728058028e-34
138,0.4779999852180481,7.703521728515625,-6.649191379547119,-5.191307544708252,-6.322671890258789,4.3036394119262695,-2.131730079650879,9.384570121765137,1.3395817279815674,2.6627893447875977,0.37048354744911194,0.5709843635559082,-0.44468435645103455,-1.4809939861297607,1.5266424417495728,0.5615314841270447,0.2666643559932709,-0.21277844905853271,5.521024227142334,21.129207611083984,-0.2937944531440735,-0.7214357256889343,-0.2849650979042053,0.5585712194442749,-632.70263671875,24388.6875,-631.540283203125,975.5474853515625,11.4375,6.542456454252315e-20,6.319096027754496e-35,-1.9694252699706225e+24,0.0,-1.9563281559346998e+37
138,0.4779999852180481,7.804130554199219,-6.445966720581055,-2.145512819290161,-8.885220527648926,3.238150119781494,2.175043821334839,10.482474327087402,0.9032856225967407,-2.642599582672119,0.7962287664413452,0.3723210394382477,-0.5536998510360718,-1.7168821096420288,1.2646020650863647,1.133144736289978,0.7138604521751404,-0.19881248474121094,5.5052876472473145,21.080217361450195,0.04081934317946434,-0.8454599976539612,-0.23866821825504303,0.47598326206207275,-637.0269165039062,24388.6875,-634.3953857421875,975.5474853515625,11.4375,-0.4926444888114929,6.179893262449391e-38,-1.3490651738085058e-12,0.0,3.122186231196061e-25
138,0.4779999852180481,7.9181671142578125,-2.7264227867126465,1.0611435174942017,-11.107958793640137,1.516570806503296,6.5793070793151855,9.292830467224121,0.2635355591773987,-2.2992477416992188,0.6904020309448242,0.22373084723949432,-0.5541236400604248,-2.0572824478149414,0.36174505949020386,1.8964672088623047,0.9284366369247437,-0.1894042044878006,5.486233711242676,21.015958786010742,0.34080177545547485,-0.8695012331008911,-0.2555896043777466,0.2499745935201645,-641.3140258789062,24383.1875,-637.593017578125,975.3275146484375,11.4375,-7.188368735817304e+25,-8.109383489105384e+37,-4.475745386697772e-16,0.0,4.531820839960262e+25
138,0.4779999852180481,8.018768310546875,-1.757102608680725,1.382843255996704,-8.28889274597168,-2.68339204788208,5.8597941398620605,5.671541213989258,-0.2495475858449936,-2.074678421020508,0.6059567332267761,0.1689283400774002,-0.5039733052253723,-2.347306966781616,-0.7232980728149414,2.206293821334839,0.6335495710372925,-0.1836036741733551,5.470320224761963,20.948205947875977,0.5135485529899597,-0.7965604066848755,-0.31531181931495667,0.04826392978429794,-643.5977172851562,24383.1875,-640.4287109375,975.3275146484375,11.4375,4.563852074035424e-11,nan,8.572894444531533e+23,0.0,1.130120728058028e-34
138,0.4779999852180481,8.119384765625,-3.717477798461914,3.525435209274292,-7.52388858795166,-6.437705993652344,3.5798230171203613,5.34758186340332,-0.7303250432014465,-1.7199349403381348,0.43112239241600037,0.07341866195201874,-0.43409264087677,-2.562913656234741,-1.7951972484588623,1.875525712966919,-0.1480146199464798,-0.17980517446994781,5.456071376800537,20.87313461303711,0.6532189846038818,-0.6416319012641907,-0.3790101706981659,-0.13400092720985413,-645.43212890625,24383.1875,-643.0787963867188,975.3275146484375,11.4375,6.542456454252315e-20,6.319096027754496e-35,-1.9694252699706225e+24,0.0,-1.9563281559346998e+37
138,0.4779999852180481,8.219993591308594,-1.6376798152923584,2.3626928329467773,-0.7207470536231995,-2.449204921722412,-0.31106290221214294,1.6395984888076782,-0.8114835023880005,-0.5929705500602722,-0.7336471676826477,-0.03413628041744232,-0.3044877052307129,-2.652801752090454,-1.801202654838562,0.8864011764526367,-1.7609891891479492,-0.17984245717525482,5.445307731628418,20.7932186126709,0.7788980007171631,-0.38596421480178833,-0.2560921013355255,-0.4227982759475708,-648.8458251953125,24383.1875,-645.5534057617188,975.3275146484375,11.4375,-0.4926444888114929,6.179893262449391e-38,-1.3490651738085058e-12,0.0,3.122186231196061e-25
